SubjectID,Gender,Age,BlockType,BlockNumber,TrialNumber,Stimulus,IsTarget,Response,RT,Correct,VAS_Baseline,VAS_PostBlock,Timestamp
ex_001,F,24,0,1,1,X,0,RIGHT,0.639308298006654,1,4,13,2025-11-23 10:19:49
ex_001,F,24,0,1,2,Q,0,RIGHT,1.08856322098291,1,4,13,2025-11-23 10:19:49
ex_001,F,24,0,1,3,C,0,RIGHT,0.590876622998621,1,4,13,2025-11-23 10:19:49
ex_001,F,24,0,1,4,H,0,RIGHT,0.577337375027128,1,4,13,2025-11-23 10:19:49
ex_001,F,24,0,1,5,N,0,RIGHT,0.542591568024363,1,4,13,2025-11-23 10:19:49
ex_001,F,24,0,1,6,Z,0,RIGHT,0.412262625002768,1,4,13,2025-11-23 10:19:49
ex_001,F,24,0,1,7,Z,0,RIGHT,0.398904829984531,1,4,13,2025-11-23 10:19:49
ex_001,F,24,0,1,8,V,1,RIGHT,0.452908424020279,0,4,13,2025-11-23 10:19:49
ex_001,F,24,0,1,9,Z,0,RIGHT,0.412314137036446,1,4,13,2025-11-23 10:19:49
ex_001,F,24,0,1,10,V,1,LEFT,0.466709095984697,1,4,13,2025-11-23 10:19:49
ex_001,F,24,0,1,11,M,0,RIGHT,0.435303042992018,1,4,13,2025-11-23 10:19:49
ex_001,F,24,0,1,12,V,0,LEFT,0.542701761005446,0,4,13,2025-11-23 10:19:49
ex_001,F,24,0,1,13,D,0,RIGHT,0.425483607978094,1,4,13,2025-11-23 10:19:49
ex_001,F,24,0,1,14,L,0,RIGHT,0.49201763398014,1,4,13,2025-11-23 10:19:49
ex_001,F,24,0,1,15,V,1,LEFT,0.421763950958848,1,4,13,2025-11-23 10:19:49
ex_001,F,24,0,1,16,V,1,LEFT,0.545841824030504,1,4,13,2025-11-23 10:19:49
ex_001,F,24,0,1,17,Z,0,RIGHT,0.49998175597284,1,4,13,2025-11-23 10:19:49
ex_001,F,24,0,1,18,R,0,RIGHT,0.540063854015898,1,4,13,2025-11-23 10:19:49
ex_001,F,24,0,1,19,B,0,RIGHT,0.565633434976917,1,4,13,2025-11-23 10:19:49
ex_001,F,24,0,1,20,V,0,LEFT,0.480461861006916,0,4,13,2025-11-23 10:19:49
ex_001,F,24,0,1,21,V,1,LEFT,0.578003926028032,1,4,13,2025-11-23 10:19:49
ex_001,F,24,0,1,22,R,0,RIGHT,0.497801504970994,1,4,13,2025-11-23 10:19:49
ex_001,F,24,0,1,23,T,0,RIGHT,0.486488221038599,1,4,13,2025-11-23 10:19:49
ex_001,F,24,0,1,24,V,1,LEFT,0.487849433033261,1,4,13,2025-11-23 10:19:49
ex_001,F,24,0,1,25,K,0,RIGHT,0.346165958966594,1,4,13,2025-11-23 10:19:49
ex_001,F,24,0,1,26,R,0,RIGHT,0.324507849989459,1,4,13,2025-11-23 10:19:49
ex_001,F,24,0,1,27,F,0,RIGHT,0.344315972004551,1,4,13,2025-11-23 10:19:49
ex_001,F,24,0,1,28,S,0,RIGHT,0.585178631008603,1,4,13,2025-11-23 10:19:49
ex_001,F,24,0,1,29,B,0,RIGHT,0.468456599977799,1,4,13,2025-11-23 10:19:49
ex_001,F,24,0,1,30,V,1,LEFT,0.460121661017183,1,4,13,2025-11-23 10:19:49
ex_001,F,24,0,1,31,B,0,RIGHT,0.28882578201592,1,4,13,2025-11-23 10:19:49
ex_001,F,24,0,1,32,C,0,RIGHT,0.436601752997376,1,4,13,2025-11-23 10:19:49
ex_001,F,24,0,1,33,V,0,LEFT,0.568799850007053,0,4,13,2025-11-23 10:19:49
ex_001,F,24,0,1,34,R,0,RIGHT,0.337996829010081,1,4,13,2025-11-23 10:19:49
ex_001,F,24,0,1,35,J,0,RIGHT,0.353948122006841,1,4,13,2025-11-23 10:19:49
ex_001,F,24,0,1,36,V,1,RIGHT,0.657312422001269,0,4,13,2025-11-23 10:19:49
ex_001,F,24,0,1,37,B,0,RIGHT,0.348404892953113,1,4,13,2025-11-23 10:19:49
ex_001,F,24,0,1,38,L,0,RIGHT,0.416017700976226,1,4,13,2025-11-23 10:19:49
ex_001,F,24,0,1,39,K,0,RIGHT,0.419629712007008,1,4,13,2025-11-23 10:19:49
ex_001,F,24,0,1,40,V,1,LEFT,0.481791789003182,1,4,13,2025-11-23 10:19:49
ex_001,F,24,0,1,41,T,0,RIGHT,0.592664431023877,1,4,13,2025-11-23 10:19:49
ex_001,F,24,0,1,42,F,0,RIGHT,0.423629352997523,1,4,13,2025-11-23 10:19:49
ex_001,F,24,0,1,43,M,0,RIGHT,0.425478410965297,1,4,13,2025-11-23 10:19:49
ex_001,F,24,0,1,44,L,0,RIGHT,0.473088277969509,1,4,13,2025-11-23 10:19:49
ex_001,F,24,0,1,45,Q,0,RIGHT,0.440689656010363,1,4,13,2025-11-23 10:19:49
ex_001,F,24,0,1,46,S,0,RIGHT,0.376761823019478,1,4,13,2025-11-23 10:19:49
ex_001,F,24,0,1,47,V,1,LEFT,0.520576296956278,1,4,13,2025-11-23 10:19:49
ex_001,F,24,0,1,48,H,0,RIGHT,0.305912757001352,1,4,13,2025-11-23 10:19:49
ex_001,F,24,0,1,49,V,1,LEFT,0.486720148997847,1,4,13,2025-11-23 10:19:49
ex_001,F,24,0,1,50,R,0,RIGHT,0.340708742965944,1,4,13,2025-11-23 10:19:49
ex_001,F,24,0,1,51,F,0,RIGHT,0.619081732991617,1,4,13,2025-11-23 10:19:49
ex_001,F,24,0,1,52,V,1,LEFT,0.364920676976908,1,4,13,2025-11-23 10:19:49
ex_001,F,24,0,1,53,M,0,RIGHT,0.326962277991697,1,4,13,2025-11-23 10:19:49
ex_001,F,24,0,1,54,Z,0,RIGHT,0.487934571981896,1,4,13,2025-11-23 10:19:49
ex_001,F,24,0,1,55,J,0,RIGHT,0.431142686982639,1,4,13,2025-11-23 10:19:49
ex_001,F,24,0,1,56,P,0,RIGHT,0.521105821011588,1,4,13,2025-11-23 10:19:49
ex_001,F,24,0,1,57,G,0,RIGHT,0.438832274987362,1,4,13,2025-11-23 10:19:49
ex_001,F,24,0,1,58,V,1,LEFT,0.521709326014388,1,4,13,2025-11-23 10:19:49
ex_001,F,24,0,1,59,H,0,RIGHT,0.464664628962055,1,4,13,2025-11-23 10:19:49
ex_001,F,24,0,1,60,N,0,RIGHT,0.361268189037219,1,4,13,2025-11-23 10:19:49
ex_001,F,24,0,1,61,R,0,RIGHT,0.428206783020869,1,4,13,2025-11-23 10:19:49
ex_001,F,24,0,1,62,V,1,LEFT,0.521335810015444,1,4,13,2025-11-23 10:19:49
ex_001,F,24,0,1,63,Z,0,RIGHT,0.345036003971472,1,4,13,2025-11-23 10:19:49
ex_001,F,24,0,1,64,V,1,LEFT,0.635508678969927,1,4,13,2025-11-23 10:19:49
ex_001,F,24,0,1,65,D,0,RIGHT,0.432473391992971,1,4,13,2025-11-23 10:19:49
ex_001,F,24,0,1,66,D,0,RIGHT,0.324257828993723,1,4,13,2025-11-23 10:19:49
ex_001,F,24,0,1,67,H,0,RIGHT,0.330213122011628,1,4,13,2025-11-23 10:19:49
ex_001,F,24,0,1,68,V,0,LEFT,0.47462329902919,0,4,13,2025-11-23 10:19:49
ex_001,F,24,0,1,69,H,0,RIGHT,0.424921557016205,1,4,13,2025-11-23 10:19:49
ex_001,F,24,0,1,70,V,0,LEFT,0.449705128034111,0,4,13,2025-11-23 10:19:49
ex_001,F,24,0,1,71,G,0,RIGHT,0.410317472997122,1,4,13,2025-11-23 10:19:49
ex_001,F,24,0,1,72,X,0,RIGHT,0.501386559975799,1,4,13,2025-11-23 10:19:49
ex_001,F,24,0,1,73,J,0,RIGHT,0.421173849957995,1,4,13,2025-11-23 10:19:49
ex_001,F,24,0,1,74,F,0,RIGHT,0.577829407993704,1,4,13,2025-11-23 10:19:49
ex_001,F,24,0,1,75,H,0,RIGHT,0.399006360967178,1,4,13,2025-11-23 10:19:49
ex_001,F,24,0,1,76,Q,0,RIGHT,0.375295376055874,1,4,13,2025-11-23 10:19:49
ex_001,F,24,0,1,77,M,0,RIGHT,0.385146522952709,1,4,13,2025-11-23 10:19:49
ex_001,F,24,0,1,78,K,0,RIGHT,0.52160505700158,1,4,13,2025-11-23 10:19:49
ex_001,F,24,0,1,79,V,0,LEFT,0.588355260028038,0,4,13,2025-11-23 10:19:49
ex_001,F,24,0,1,80,P,0,RIGHT,0.421496384020429,1,4,13,2025-11-23 10:19:49
ex_001,F,24,0,1,81,N,0,RIGHT,0.360883370041847,1,4,13,2025-11-23 10:19:49
ex_001,F,24,0,1,82,X,0,RIGHT,0.327053437998984,1,4,13,2025-11-23 10:19:49
ex_001,F,24,0,1,83,H,0,RIGHT,0.371069184038788,1,4,13,2025-11-23 10:19:49
ex_001,F,24,0,1,84,T,0,RIGHT,0.321994655008893,1,4,13,2025-11-23 10:19:49
ex_001,F,24,0,1,85,T,0,RIGHT,0.331775573024061,1,4,13,2025-11-23 10:19:49
ex_001,F,24,0,1,86,K,0,RIGHT,0.376886298996396,1,4,13,2025-11-23 10:19:49
ex_001,F,24,0,1,87,P,0,RIGHT,0.4654027139768,1,4,13,2025-11-23 10:19:49
ex_001,F,24,0,1,88,V,1,RIGHT,0.420711464015767,0,4,13,2025-11-23 10:19:49
ex_001,F,24,0,1,89,C,0,RIGHT,0.320910609967541,1,4,13,2025-11-23 10:19:49
ex_001,F,24,0,1,90,N,0,RIGHT,0.614404395979363,1,4,13,2025-11-23 10:19:49
ex_001,F,24,0,1,91,T,0,RIGHT,0.43144981196383,1,4,13,2025-11-23 10:19:49
ex_001,F,24,0,1,92,V,1,LEFT,0.415785363991745,1,4,13,2025-11-23 10:19:49
ex_001,F,24,0,1,93,V,1,LEFT,0.672946586972103,1,4,13,2025-11-23 10:19:49
ex_001,F,24,0,1,94,V,1,LEFT,0.410472975985613,1,4,13,2025-11-23 10:19:49
ex_001,F,24,0,1,95,M,0,RIGHT,0.267808020988014,1,4,13,2025-11-23 10:19:49
ex_001,F,24,0,1,96,B,0,RIGHT,0.588805495004635,1,4,13,2025-11-23 10:19:49
ex_001,F,24,0,1,97,J,0,RIGHT,0.375814710976556,1,4,13,2025-11-23 10:19:49
ex_001,F,24,0,1,98,V,1,RIGHT,0.29613214195706,0,4,13,2025-11-23 10:19:49
ex_001,F,24,0,1,99,T,0,RIGHT,0.376633877982385,1,4,13,2025-11-23 10:19:49
ex_001,F,24,0,1,100,J,0,RIGHT,0.575614180008415,1,4,13,2025-11-23 10:19:49
ex_001,F,24,0,1,101,N,0,RIGHT,0.496119580988307,1,4,13,2025-11-23 10:19:49
ex_001,F,24,0,1,102,V,1,LEFT,0.483015951002017,1,4,13,2025-11-23 10:19:49
ex_001,F,24,0,1,103,V,1,LEFT,0.562507914029993,1,4,13,2025-11-23 10:19:49
ex_001,F,24,0,1,104,H,0,RIGHT,0.446318076981697,1,4,13,2025-11-23 10:19:49
ex_001,F,24,0,1,105,R,0,RIGHT,0.34879365703091,1,4,13,2025-11-23 10:19:49
ex_001,F,24,0,1,106,R,0,RIGHT,0.315262196003459,1,4,13,2025-11-23 10:19:49
ex_001,F,24,0,1,107,S,0,RIGHT,0.3651406429708,1,4,13,2025-11-23 10:19:49
ex_001,F,24,0,1,108,M,0,RIGHT,0.336075103026815,1,4,13,2025-11-23 10:19:49
ex_001,F,24,0,1,109,V,1,LEFT,0.521277605963405,1,4,13,2025-11-23 10:19:49
ex_001,F,24,0,1,110,G,0,RIGHT,0.490133865969256,1,4,13,2025-11-23 10:19:49
ex_001,F,24,0,1,111,X,0,RIGHT,0.400469316984527,1,4,13,2025-11-23 10:19:49
ex_001,F,24,0,1,112,F,0,RIGHT,0.386655777983833,1,4,13,2025-11-23 10:19:49
ex_001,F,24,0,1,113,V,0,LEFT,0.56408521195408,0,4,13,2025-11-23 10:19:49
ex_001,F,24,0,1,114,N,0,RIGHT,0.630073842010461,1,4,13,2025-11-23 10:19:49
ex_001,F,24,0,1,115,V,1,LEFT,0.501652505015954,1,4,13,2025-11-23 10:19:49
ex_001,F,24,0,1,116,C,0,RIGHT,0.345552070008125,1,4,13,2025-11-23 10:19:49
ex_001,F,24,0,1,117,L,0,RIGHT,0.535675237013493,1,4,13,2025-11-23 10:19:49
ex_001,F,24,0,1,118,D,0,RIGHT,0.450786414963659,1,4,13,2025-11-23 10:19:49
ex_001,F,24,0,1,119,Z,0,RIGHT,0.549247343966272,1,4,13,2025-11-23 10:19:49
ex_001,F,24,0,1,120,B,0,RIGHT,0.394946422020439,1,4,13,2025-11-23 10:19:49
