SubjectID,Gender,Age,BlockType,BlockNumber,TrialNumber,Stimulus,IsTarget,Response,RT,Correct,VAS_Baseline,VAS_PostBlock,Timestamp
yfx,F,27,0,1,1,W,0,RIGHT,0.869665788020939,1,30,40,2025-11-25 16:35:11
yfx,F,27,0,1,2,Q,0,RIGHT,0.361241528997198,1,30,40,2025-11-25 16:35:11
yfx,F,27,0,1,3,K,0,RIGHT,0.500697587034665,1,30,40,2025-11-25 16:35:11
yfx,F,27,0,1,4,F,0,RIGHT,0.398959824931808,1,30,40,2025-11-25 16:35:11
yfx,F,27,0,1,5,L,0,RIGHT,0.375553400022909,1,30,40,2025-11-25 16:35:11
yfx,F,27,0,1,6,M,0,LEFT,0.701333023956977,0,30,40,2025-11-25 16:35:11
yfx,F,27,0,1,7,D,0,RIGHT,0.220855141058564,1,30,40,2025-11-25 16:35:11
yfx,F,27,0,1,8,P,0,RIGHT,0.362535182037391,1,30,40,2025-11-25 16:35:11
yfx,F,27,0,1,9,G,0,RIGHT,0.424373166984878,1,30,40,2025-11-25 16:35:11
yfx,F,27,0,1,10,K,0,RIGHT,0.349981121020392,1,30,40,2025-11-25 16:35:11
yfx,F,27,0,1,11,P,0,RIGHT,0.247620888985693,1,30,40,2025-11-25 16:35:11
yfx,F,27,0,1,12,H,0,RIGHT,0.299160034046508,1,30,40,2025-11-25 16:35:11
yfx,F,27,0,1,13,M,1,RIGHT,0.307506217970513,0,30,40,2025-11-25 16:35:11
yfx,F,27,0,1,14,Q,0,RIGHT,0.319583941018209,1,30,40,2025-11-25 16:35:11
yfx,F,27,0,1,15,H,0,RIGHT,0.391831039916724,1,30,40,2025-11-25 16:35:11
yfx,F,27,0,1,16,V,0,RIGHT,0.398557095904835,1,30,40,2025-11-25 16:35:11
yfx,F,27,0,1,17,Z,0,RIGHT,0.521209219936281,1,30,40,2025-11-25 16:35:11
yfx,F,27,0,1,18,S,0,RIGHT,0.404178995988332,1,30,40,2025-11-25 16:35:11
yfx,F,27,0,1,19,J,0,RIGHT,0.475881097954698,1,30,40,2025-11-25 16:35:11
yfx,F,27,0,1,20,P,0,RIGHT,0.483144119963981,1,30,40,2025-11-25 16:35:11
yfx,F,27,0,1,21,D,0,RIGHT,0.406547239050269,1,30,40,2025-11-25 16:35:11
yfx,F,27,0,1,22,X,0,RIGHT,0.391784065053798,1,30,40,2025-11-25 16:35:11
yfx,F,27,0,1,23,W,0,RIGHT,0.368746972060762,1,30,40,2025-11-25 16:35:11
yfx,F,27,0,1,24,V,0,RIGHT,0.421318228007294,1,30,40,2025-11-25 16:35:11
yfx,F,27,0,1,25,H,0,RIGHT,0.503735616919585,1,30,40,2025-11-25 16:35:11
yfx,F,27,0,1,26,P,0,RIGHT,0.384495374979451,1,30,40,2025-11-25 16:35:11
yfx,F,27,0,1,27,B,0,RIGHT,0.423760144039989,1,30,40,2025-11-25 16:35:11
yfx,F,27,0,1,28,L,0,RIGHT,0.341405806015246,1,30,40,2025-11-25 16:35:11
yfx,F,27,0,1,29,M,1,LEFT,0.406494801049121,1,30,40,2025-11-25 16:35:11
yfx,F,27,0,1,30,F,0,RIGHT,0.2987731579924,1,30,40,2025-11-25 16:35:11
yfx,F,27,0,1,31,F,0,RIGHT,0.336319445050322,1,30,40,2025-11-25 16:35:11
yfx,F,27,0,1,32,L,0,RIGHT,0.342919470043853,1,30,40,2025-11-25 16:35:11
yfx,F,27,0,1,33,C,0,RIGHT,0.368606934905984,1,30,40,2025-11-25 16:35:11
yfx,F,27,0,1,34,M,1,LEFT,0.572712666005827,1,30,40,2025-11-25 16:35:11
yfx,F,27,0,1,35,M,0,LEFT,0.527248903992586,0,30,40,2025-11-25 16:35:11
yfx,F,27,0,1,36,R,0,RIGHT,0.348409464932047,1,30,40,2025-11-25 16:35:11
yfx,F,27,0,1,37,R,0,RIGHT,0.328933578915894,1,30,40,2025-11-25 16:35:11
yfx,F,27,0,1,38,Q,0,RIGHT,0.38798501691781,1,30,40,2025-11-25 16:35:11
yfx,F,27,0,1,39,B,0,RIGHT,0.360385276959278,1,30,40,2025-11-25 16:35:11
yfx,F,27,0,1,40,C,0,RIGHT,0.311189090949483,1,30,40,2025-11-25 16:35:11
yfx,F,27,0,1,41,M,1,LEFT,0.553447925020009,1,30,40,2025-11-25 16:35:11
yfx,F,27,0,1,42,N,0,RIGHT,0.469252533046529,1,30,40,2025-11-25 16:35:11
yfx,F,27,0,1,43,R,0,RIGHT,0.35618050803896,1,30,40,2025-11-25 16:35:11
yfx,F,27,0,1,44,L,0,RIGHT,0.334918949054554,1,30,40,2025-11-25 16:35:11
yfx,F,27,0,1,45,V,0,RIGHT,0.452786670997739,1,30,40,2025-11-25 16:35:11
yfx,F,27,0,1,46,S,0,RIGHT,0.344573569018394,1,30,40,2025-11-25 16:35:11
yfx,F,27,0,1,47,Z,0,RIGHT,0.347720487974584,1,30,40,2025-11-25 16:35:11
yfx,F,27,0,1,48,M,1,LEFT,0.522210633032955,1,30,40,2025-11-25 16:35:11
yfx,F,27,0,1,49,M,1,LEFT,0.479222688009031,1,30,40,2025-11-25 16:35:11
yfx,F,27,0,1,50,D,0,RIGHT,0.421683687018231,1,30,40,2025-11-25 16:35:11
yfx,F,27,0,1,51,Q,0,RIGHT,0.450982420006767,1,30,40,2025-11-25 16:35:11
yfx,F,27,0,1,52,T,0,RIGHT,0.424288638983853,1,30,40,2025-11-25 16:35:11
yfx,F,27,0,1,53,M,1,LEFT,0.422077857074328,1,30,40,2025-11-25 16:35:11
yfx,F,27,0,1,54,M,1,LEFT,0.398670128895901,1,30,40,2025-11-25 16:35:11
yfx,F,27,0,1,55,M,1,LEFT,0.41264713392593,1,30,40,2025-11-25 16:35:11
yfx,F,27,0,1,56,F,0,RIGHT,0.378752632066607,1,30,40,2025-11-25 16:35:11
yfx,F,27,0,1,57,H,0,LEFT,0.395045942976139,0,30,40,2025-11-25 16:35:11
yfx,F,27,0,1,58,L,0,RIGHT,0.434743853984401,1,30,40,2025-11-25 16:35:11
yfx,F,27,0,1,59,M,1,LEFT,0.52303728600964,1,30,40,2025-11-25 16:35:11
yfx,F,27,0,1,60,M,0,LEFT,0.451812209910713,0,30,40,2025-11-25 16:35:11
yfx,F,27,0,1,61,W,0,RIGHT,0.4477153980406,1,30,40,2025-11-25 16:35:11
yfx,F,27,0,1,62,N,0,RIGHT,0.643001664895564,1,30,40,2025-11-25 16:35:11
yfx,F,27,0,1,63,X,0,RIGHT,0.385373577009887,1,30,40,2025-11-25 16:35:11
yfx,F,27,0,1,64,M,1,LEFT,0.436887281946838,1,30,40,2025-11-25 16:35:11
yfx,F,27,0,1,65,Z,0,RIGHT,0.475518189021386,1,30,40,2025-11-25 16:35:11
yfx,F,27,0,1,66,M,1,LEFT,0.386790069984272,1,30,40,2025-11-25 16:35:11
yfx,F,27,0,1,67,R,0,RIGHT,0.398552051978186,1,30,40,2025-11-25 16:35:11
yfx,F,27,0,1,68,M,1,LEFT,0.526532251969911,1,30,40,2025-11-25 16:35:11
yfx,F,27,0,1,69,R,0,RIGHT,0.448308649007231,1,30,40,2025-11-25 16:35:11
yfx,F,27,0,1,70,R,0,RIGHT,0.521294499980286,1,30,40,2025-11-25 16:35:11
yfx,F,27,0,1,71,C,0,RIGHT,0.60934756800998,1,30,40,2025-11-25 16:35:11
yfx,F,27,0,1,72,H,0,RIGHT,0.385523973032832,1,30,40,2025-11-25 16:35:11
yfx,F,27,0,1,73,G,0,RIGHT,0.389438924030401,1,30,40,2025-11-25 16:35:11
yfx,F,27,0,1,74,R,0,RIGHT,0.560304190963507,1,30,40,2025-11-25 16:35:11
yfx,F,27,0,1,75,V,0,RIGHT,0.403999977977946,1,30,40,2025-11-25 16:35:11
yfx,F,27,0,1,76,J,0,RIGHT,0.473103024996817,1,30,40,2025-11-25 16:35:11
yfx,F,27,0,1,77,M,1,LEFT,0.653709945036098,1,30,40,2025-11-25 16:35:11
yfx,F,27,0,1,78,R,0,RIGHT,0.491463836980984,1,30,40,2025-11-25 16:35:11
yfx,F,27,0,1,79,M,1,LEFT,0.530969814048149,1,30,40,2025-11-25 16:35:11
yfx,F,27,0,1,80,Q,0,RIGHT,0.353671629098244,1,30,40,2025-11-25 16:35:11
yfx,F,27,0,1,81,K,0,RIGHT,0.418821901082993,1,30,40,2025-11-25 16:35:11
yfx,F,27,0,1,82,X,0,RIGHT,0.566321625025012,1,30,40,2025-11-25 16:35:11
yfx,F,27,0,1,83,B,0,RIGHT,0.44174171006307,1,30,40,2025-11-25 16:35:11
yfx,F,27,0,1,84,M,0,LEFT,0.451054597040638,0,30,40,2025-11-25 16:35:11
yfx,F,27,0,1,85,L,0,RIGHT,0.345355606987141,1,30,40,2025-11-25 16:35:11
yfx,F,27,0,1,86,M,0,LEFT,0.467579921940342,0,30,40,2025-11-25 16:35:11
yfx,F,27,0,1,87,T,0,RIGHT,0.379191632964648,1,30,40,2025-11-25 16:35:11
yfx,F,27,0,1,88,J,0,RIGHT,0.418142404989339,1,30,40,2025-11-25 16:35:11
yfx,F,27,0,1,89,T,0,RIGHT,0.37013127701357,1,30,40,2025-11-25 16:35:11
yfx,F,27,0,1,90,M,0,LEFT,0.402080724015832,0,30,40,2025-11-25 16:35:11
yfx,F,27,0,1,91,M,1,LEFT,0.521778627997264,1,30,40,2025-11-25 16:35:11
yfx,F,27,0,1,92,F,0,RIGHT,0.389362707966939,1,30,40,2025-11-25 16:35:11
yfx,F,27,0,1,93,S,0,RIGHT,0.768553945003077,1,30,40,2025-11-25 16:35:11
yfx,F,27,0,1,94,M,1,LEFT,0.552990259020589,1,30,40,2025-11-25 16:35:11
yfx,F,27,0,1,95,F,0,RIGHT,0.484471422969364,1,30,40,2025-11-25 16:35:11
yfx,F,27,0,1,96,M,1,LEFT,0.548097250983119,1,30,40,2025-11-25 16:35:11
yfx,F,27,0,1,97,M,1,LEFT,0.537399624008685,1,30,40,2025-11-25 16:35:11
yfx,F,27,0,1,98,F,0,RIGHT,0.388503817026503,1,30,40,2025-11-25 16:35:11
yfx,F,27,0,1,99,S,0,RIGHT,0.559249124024063,1,30,40,2025-11-25 16:35:11
yfx,F,27,0,1,100,M,1,LEFT,0.464748651953414,1,30,40,2025-11-25 16:35:11
yfx,F,27,0,1,101,X,0,RIGHT,0.394735481007956,1,30,40,2025-11-25 16:35:11
yfx,F,27,0,1,102,H,0,RIGHT,0.560642568045296,1,30,40,2025-11-25 16:35:11
yfx,F,27,0,1,103,T,0,RIGHT,0.444573279004544,1,30,40,2025-11-25 16:35:11
yfx,F,27,0,1,104,F,0,RIGHT,0.286516029038467,1,30,40,2025-11-25 16:35:11
yfx,F,27,0,1,105,H,0,RIGHT,0.344784946064465,1,30,40,2025-11-25 16:35:11
yfx,F,27,0,1,106,C,0,RIGHT,0.367565662949346,1,30,40,2025-11-25 16:35:11
yfx,F,27,0,1,107,P,0,RIGHT,0.403770992998034,1,30,40,2025-11-25 16:35:11
yfx,F,27,0,1,108,R,0,RIGHT,0.348437844077125,1,30,40,2025-11-25 16:35:11
yfx,F,27,0,1,109,M,1,LEFT,0.500853762030602,1,30,40,2025-11-25 16:35:11
yfx,F,27,0,1,110,L,0,RIGHT,0.504621275002137,1,30,40,2025-11-25 16:35:11
yfx,F,27,0,1,111,M,1,LEFT,0.574156407965347,1,30,40,2025-11-25 16:35:11
yfx,F,27,0,1,112,M,1,LEFT,0.393816451076418,1,30,40,2025-11-25 16:35:11
yfx,F,27,0,1,113,R,0,RIGHT,0.365617039962672,1,30,40,2025-11-25 16:35:11
yfx,F,27,0,1,114,Q,0,RIGHT,0.771417504991405,1,30,40,2025-11-25 16:35:11
yfx,F,27,0,1,115,X,0,RIGHT,0.386455087922513,1,30,40,2025-11-25 16:35:11
yfx,F,27,0,1,116,G,0,RIGHT,0.425073373946361,1,30,40,2025-11-25 16:35:11
yfx,F,27,0,1,117,S,0,RIGHT,0.350504137924872,1,30,40,2025-11-25 16:35:11
yfx,F,27,0,1,118,G,0,RIGHT,0.327831635018811,1,30,40,2025-11-25 16:35:11
yfx,F,27,0,1,119,D,0,RIGHT,0.340318370959722,1,30,40,2025-11-25 16:35:11
yfx,F,27,0,1,120,M,1,LEFT,0.374441417050548,1,30,40,2025-11-25 16:35:11
yfx,F,27,0,2,1,S,0,RIGHT,0.778953927918337,1,30,60,2025-11-25 16:44:06
yfx,F,27,0,2,2,N,0,RIGHT,0.546660684980452,1,30,60,2025-11-25 16:44:06
yfx,F,27,0,2,3,M,1,LEFT,0.528771912911907,1,30,60,2025-11-25 16:44:06
yfx,F,27,0,2,4,M,1,LEFT,0.478164789965376,1,30,60,2025-11-25 16:44:06
yfx,F,27,0,2,5,M,1,LEFT,0.481648050947115,1,30,60,2025-11-25 16:44:06
yfx,F,27,0,2,6,M,1,LEFT,0.463388985954225,1,30,60,2025-11-25 16:44:06
yfx,F,27,0,2,7,C,0,RIGHT,0.35797272704076,1,30,60,2025-11-25 16:44:06
yfx,F,27,0,2,8,L,0,RIGHT,0.358781337970868,1,30,60,2025-11-25 16:44:06
yfx,F,27,0,2,9,L,0,RIGHT,0.340028716018423,1,30,60,2025-11-25 16:44:06
yfx,F,27,0,2,10,K,0,RIGHT,0.397424880997278,1,30,60,2025-11-25 16:44:06
yfx,F,27,0,2,11,T,0,RIGHT,0.429739667917602,1,30,60,2025-11-25 16:44:06
yfx,F,27,0,2,12,Q,0,RIGHT,0.364638578961603,1,30,60,2025-11-25 16:44:06
yfx,F,27,0,2,13,M,1,LEFT,0.547995910048485,1,30,60,2025-11-25 16:44:06
yfx,F,27,0,2,14,X,0,RIGHT,0.313600999070331,1,30,60,2025-11-25 16:44:06
yfx,F,27,0,2,15,M,1,LEFT,0.500022100983188,1,30,60,2025-11-25 16:44:06
yfx,F,27,0,2,16,M,1,LEFT,0.427040621987544,1,30,60,2025-11-25 16:44:06
yfx,F,27,0,2,17,D,0,RIGHT,0.354618221987039,1,30,60,2025-11-25 16:44:06
yfx,F,27,0,2,18,R,0,RIGHT,0.320184904965572,1,30,60,2025-11-25 16:44:06
yfx,F,27,0,2,19,C,0,RIGHT,0.363347295089625,1,30,60,2025-11-25 16:44:06
yfx,F,27,0,2,20,M,1,LEFT,0.389445822918788,1,30,60,2025-11-25 16:44:06
yfx,F,27,0,2,21,M,1,LEFT,0.48464302206412,1,30,60,2025-11-25 16:44:06
yfx,F,27,0,2,22,M,1,LEFT,0.424373100977391,1,30,60,2025-11-25 16:44:06
yfx,F,27,0,2,23,M,0,LEFT,0.329818318015896,0,30,60,2025-11-25 16:44:06
yfx,F,27,0,2,24,M,1,LEFT,0.344380561960861,1,30,60,2025-11-25 16:44:06
yfx,F,27,0,2,25,R,0,RIGHT,0.372339791967534,1,30,60,2025-11-25 16:44:06
yfx,F,27,0,2,26,S,0,RIGHT,0.523203791002743,1,30,60,2025-11-25 16:44:06
yfx,F,27,0,2,27,N,0,RIGHT,0.418884261976928,1,30,60,2025-11-25 16:44:06
yfx,F,27,0,2,28,M,1,LEFT,0.521103651029989,1,30,60,2025-11-25 16:44:06
yfx,F,27,0,2,29,D,0,RIGHT,0.354171265964396,1,30,60,2025-11-25 16:44:06
yfx,F,27,0,2,30,P,0,RIGHT,0.372035896056332,1,30,60,2025-11-25 16:44:06
yfx,F,27,0,2,31,H,0,RIGHT,0.37319800700061,1,30,60,2025-11-25 16:44:06
yfx,F,27,0,2,32,B,0,RIGHT,0.520204721949995,1,30,60,2025-11-25 16:44:06
yfx,F,27,0,2,33,T,0,RIGHT,0.375676212948747,1,30,60,2025-11-25 16:44:06
yfx,F,27,0,2,34,G,0,RIGHT,0.344634187989868,1,30,60,2025-11-25 16:44:06
yfx,F,27,0,2,35,L,0,RIGHT,0.394864751026034,1,30,60,2025-11-25 16:44:06
yfx,F,27,0,2,36,R,0,RIGHT,0.567760100006126,1,30,60,2025-11-25 16:44:06
yfx,F,27,0,2,37,K,0,RIGHT,0.388826103997417,1,30,60,2025-11-25 16:44:06
yfx,F,27,0,2,38,S,0,RIGHT,0.45527515897993,1,30,60,2025-11-25 16:44:06
yfx,F,27,0,2,39,K,0,RIGHT,0.385785351973027,1,30,60,2025-11-25 16:44:06
yfx,F,27,0,2,40,M,1,LEFT,0.53226921800524,1,30,60,2025-11-25 16:44:06
yfx,F,27,0,2,41,S,0,RIGHT,0.464362747035921,1,30,60,2025-11-25 16:44:06
yfx,F,27,0,2,42,L,0,RIGHT,0.431668823002838,1,30,60,2025-11-25 16:44:06
yfx,F,27,0,2,43,B,0,RIGHT,0.387880106922239,1,30,60,2025-11-25 16:44:06
yfx,F,27,0,2,44,J,0,RIGHT,0.464440859039314,1,30,60,2025-11-25 16:44:06
yfx,F,27,0,2,45,L,0,RIGHT,0.364773862063885,1,30,60,2025-11-25 16:44:06
yfx,F,27,0,2,46,H,0,RIGHT,0.356486274977215,1,30,60,2025-11-25 16:44:06
yfx,F,27,0,2,47,F,0,RIGHT,0.391494860057719,1,30,60,2025-11-25 16:44:06
yfx,F,27,0,2,48,V,0,RIGHT,0.402529836050235,1,30,60,2025-11-25 16:44:06
yfx,F,27,0,2,49,L,0,RIGHT,0.378344487049617,1,30,60,2025-11-25 16:44:06
yfx,F,27,0,2,50,W,0,RIGHT,0.538358204998076,1,30,60,2025-11-25 16:44:06
yfx,F,27,0,2,51,K,0,RIGHT,0.41578851104714,1,30,60,2025-11-25 16:44:06
yfx,F,27,0,2,52,T,0,RIGHT,0.366052585071884,1,30,60,2025-11-25 16:44:06
yfx,F,27,0,2,53,M,1,LEFT,0.704691204009578,1,30,60,2025-11-25 16:44:06
yfx,F,27,0,2,54,V,0,RIGHT,0.432370443013497,1,30,60,2025-11-25 16:44:06
yfx,F,27,0,2,55,T,0,RIGHT,0.580836561974138,1,30,60,2025-11-25 16:44:06
yfx,F,27,0,2,56,K,0,RIGHT,0.39205625501927,1,30,60,2025-11-25 16:44:06
yfx,F,27,0,2,57,M,1,LEFT,0.490679679904133,1,30,60,2025-11-25 16:44:06
yfx,F,27,0,2,58,T,0,RIGHT,0.307740694959648,1,30,60,2025-11-25 16:44:06
yfx,F,27,0,2,59,X,0,RIGHT,0.372240258031525,1,30,60,2025-11-25 16:44:06
yfx,F,27,0,2,60,J,0,RIGHT,0.419496865943074,1,30,60,2025-11-25 16:44:06
yfx,F,27,0,2,61,R,0,RIGHT,0.349751060013659,1,30,60,2025-11-25 16:44:06
yfx,F,27,0,2,62,L,0,RIGHT,0.381016638013534,1,30,60,2025-11-25 16:44:06
yfx,F,27,0,2,63,M,1,RIGHT,0.297907734988257,0,30,60,2025-11-25 16:44:06
yfx,F,27,0,2,64,M,1,LEFT,0.467082249000669,1,30,60,2025-11-25 16:44:06
yfx,F,27,0,2,65,F,0,RIGHT,0.452108675031923,1,30,60,2025-11-25 16:44:06
yfx,F,27,0,2,66,W,0,RIGHT,0.773777307011187,1,30,60,2025-11-25 16:44:06
yfx,F,27,0,2,67,Z,0,RIGHT,0.445096065988764,1,30,60,2025-11-25 16:44:06
yfx,F,27,0,2,68,M,1,LEFT,0.404423295985907,1,30,60,2025-11-25 16:44:06
yfx,F,27,0,2,69,W,0,RIGHT,0.401158763095737,1,30,60,2025-11-25 16:44:06
yfx,F,27,0,2,70,M,1,LEFT,0.375667680986226,1,30,60,2025-11-25 16:44:06
yfx,F,27,0,2,71,M,1,LEFT,0.521838658023626,1,30,60,2025-11-25 16:44:06
yfx,F,27,0,2,72,F,0,RIGHT,0.412421129993163,1,30,60,2025-11-25 16:44:06
yfx,F,27,0,2,73,L,0,RIGHT,0.520244037965313,1,30,60,2025-11-25 16:44:06
yfx,F,27,0,2,74,S,0,RIGHT,0.404005582095124,1,30,60,2025-11-25 16:44:06
yfx,F,27,0,2,75,V,0,RIGHT,0.405086644925177,1,30,60,2025-11-25 16:44:06
yfx,F,27,0,2,76,T,0,RIGHT,0.46928125701379,1,30,60,2025-11-25 16:44:06
yfx,F,27,0,2,77,J,0,RIGHT,0.382835680968128,1,30,60,2025-11-25 16:44:06
yfx,F,27,0,2,78,N,0,RIGHT,0.388911586953327,1,30,60,2025-11-25 16:44:06
yfx,F,27,0,2,79,C,0,RIGHT,0.365024292026646,1,30,60,2025-11-25 16:44:06
yfx,F,27,0,2,80,D,0,RIGHT,0.438226414029486,1,30,60,2025-11-25 16:44:06
yfx,F,27,0,2,81,D,0,RIGHT,0.388109477004036,1,30,60,2025-11-25 16:44:06
yfx,F,27,0,2,82,R,0,RIGHT,0.419163533952087,1,30,60,2025-11-25 16:44:06
yfx,F,27,0,2,83,M,0,LEFT,0.573865209007636,0,30,60,2025-11-25 16:44:06
yfx,F,27,0,2,84,F,0,RIGHT,0.318350970977917,1,30,60,2025-11-25 16:44:06
yfx,F,27,0,2,85,M,0,LEFT,0.54083798697684,0,30,60,2025-11-25 16:44:06
yfx,F,27,0,2,86,D,0,RIGHT,0.392731058993377,1,30,60,2025-11-25 16:44:06
yfx,F,27,0,2,87,C,0,RIGHT,0.40370474406518,1,30,60,2025-11-25 16:44:06
yfx,F,27,0,2,88,W,0,RIGHT,0.65561198303476,1,30,60,2025-11-25 16:44:06
yfx,F,27,0,2,89,P,0,RIGHT,0.361745089059696,1,30,60,2025-11-25 16:44:06
yfx,F,27,0,2,90,X,0,RIGHT,0.363750151009299,1,30,60,2025-11-25 16:44:06
yfx,F,27,0,2,91,R,0,RIGHT,0.366766110062599,1,30,60,2025-11-25 16:44:06
yfx,F,27,0,2,92,P,0,RIGHT,0.389534826041199,1,30,60,2025-11-25 16:44:06
yfx,F,27,0,2,93,V,0,RIGHT,0.430409663007595,1,30,60,2025-11-25 16:44:06
yfx,F,27,0,2,94,W,0,RIGHT,0.35262033494655,1,30,60,2025-11-25 16:44:06
yfx,F,27,0,2,95,Z,0,RIGHT,0.420055232942104,1,30,60,2025-11-25 16:44:06
yfx,F,27,0,2,96,B,0,RIGHT,0.454488557064906,1,30,60,2025-11-25 16:44:06
yfx,F,27,0,2,97,W,0,RIGHT,0.521190995001234,1,30,60,2025-11-25 16:44:06
yfx,F,27,0,2,98,M,1,RIGHT,0.25626968301367,0,30,60,2025-11-25 16:44:06
yfx,F,27,0,2,99,Z,0,RIGHT,0.521486741956323,1,30,60,2025-11-25 16:44:06
yfx,F,27,0,2,100,N,0,RIGHT,0.553779072943144,1,30,60,2025-11-25 16:44:06
yfx,F,27,0,2,101,M,1,LEFT,0.472595146973617,1,30,60,2025-11-25 16:44:06
yfx,F,27,0,2,102,V,0,RIGHT,0.422467046999373,1,30,60,2025-11-25 16:44:06
yfx,F,27,0,2,103,G,0,RIGHT,0.389414452016354,1,30,60,2025-11-25 16:44:06
yfx,F,27,0,2,104,M,0,LEFT,0.375524069066159,0,30,60,2025-11-25 16:44:06
yfx,F,27,0,2,105,X,0,RIGHT,0.538323772954755,1,30,60,2025-11-25 16:44:06
yfx,F,27,0,2,106,P,0,RIGHT,0.497861878015101,1,30,60,2025-11-25 16:44:06
yfx,F,27,0,2,107,M,1,LEFT,0.542079244041815,1,30,60,2025-11-25 16:44:06
yfx,F,27,0,2,108,S,0,RIGHT,0.484256327035837,1,30,60,2025-11-25 16:44:06
yfx,F,27,0,2,109,P,0,RIGHT,0.473132284008898,1,30,60,2025-11-25 16:44:06
yfx,F,27,0,2,110,M,1,LEFT,0.525544875999913,1,30,60,2025-11-25 16:44:06
yfx,F,27,0,2,111,R,0,RIGHT,0.562924001016654,1,30,60,2025-11-25 16:44:06
yfx,F,27,0,2,112,C,0,RIGHT,0.332402428961359,1,30,60,2025-11-25 16:44:06
yfx,F,27,0,2,113,Q,0,RIGHT,0.334850716055371,1,30,60,2025-11-25 16:44:06
yfx,F,27,0,2,114,R,0,RIGHT,0.453692488954403,1,30,60,2025-11-25 16:44:06
yfx,F,27,0,2,115,S,0,RIGHT,0.397692741942592,1,30,60,2025-11-25 16:44:06
yfx,F,27,0,2,116,W,0,LEFT,0.705569491023198,0,30,60,2025-11-25 16:44:06
yfx,F,27,0,2,117,Z,0,RIGHT,0.323878488969058,1,30,60,2025-11-25 16:44:06
yfx,F,27,0,2,118,T,0,RIGHT,0.424271358060651,1,30,60,2025-11-25 16:44:06
yfx,F,27,0,2,119,P,0,RIGHT,0.330474489950575,1,30,60,2025-11-25 16:44:06
yfx,F,27,0,2,120,X,0,RIGHT,0.455494667985477,1,30,60,2025-11-25 16:44:06
yfx,F,27,0,3,1,M,0,LEFT,0.660040471004322,0,30,75,2025-11-25 16:55:27
yfx,F,27,0,3,2,N,0,RIGHT,0.533134129014798,1,30,75,2025-11-25 16:55:27
yfx,F,27,0,3,3,L,0,RIGHT,0.340568318963051,1,30,75,2025-11-25 16:55:27
yfx,F,27,0,3,4,D,0,RIGHT,0.368540757102892,1,30,75,2025-11-25 16:55:27
yfx,F,27,0,3,5,M,0,LEFT,0.589214229024947,0,30,75,2025-11-25 16:55:27
yfx,F,27,0,3,6,M,1,LEFT,0.630942721967585,1,30,75,2025-11-25 16:55:27
yfx,F,27,0,3,7,W,0,RIGHT,0.421641563996673,1,30,75,2025-11-25 16:55:27
yfx,F,27,0,3,8,M,1,LEFT,0.420937628019601,1,30,75,2025-11-25 16:55:27
yfx,F,27,0,3,9,M,1,LEFT,0.434064701898023,1,30,75,2025-11-25 16:55:27
yfx,F,27,0,3,10,P,0,RIGHT,0.298899279092439,1,30,75,2025-11-25 16:55:27
yfx,F,27,0,3,11,Q,0,RIGHT,0.347896353923716,1,30,75,2025-11-25 16:55:27
yfx,F,27,0,3,12,M,1,LEFT,0.55285370897036,1,30,75,2025-11-25 16:55:27
yfx,F,27,0,3,13,G,0,RIGHT,0.763050106004812,1,30,75,2025-11-25 16:55:27
yfx,F,27,0,3,14,M,1,LEFT,0.557818699977361,1,30,75,2025-11-25 16:55:27
yfx,F,27,0,3,15,C,0,RIGHT,0.426113983034156,1,30,75,2025-11-25 16:55:27
yfx,F,27,0,3,16,D,0,RIGHT,0.357418520958163,1,30,75,2025-11-25 16:55:27
yfx,F,27,0,3,17,D,0,RIGHT,0.470749438041821,1,30,75,2025-11-25 16:55:27
yfx,F,27,0,3,18,F,0,RIGHT,0.450101425056346,1,30,75,2025-11-25 16:55:27
yfx,F,27,0,3,19,Q,0,RIGHT,0.412075412925333,1,30,75,2025-11-25 16:55:27
yfx,F,27,0,3,20,P,0,RIGHT,0.416314858011901,1,30,75,2025-11-25 16:55:27
yfx,F,27,0,3,21,C,0,RIGHT,0.61841289291624,1,30,75,2025-11-25 16:55:27
yfx,F,27,0,3,22,X,0,RIGHT,0.353001257986762,1,30,75,2025-11-25 16:55:27
yfx,F,27,0,3,23,S,0,RIGHT,0.297149815945886,1,30,75,2025-11-25 16:55:27
yfx,F,27,0,3,24,S,0,RIGHT,0.44008686998859,1,30,75,2025-11-25 16:55:27
yfx,F,27,0,3,25,C,0,RIGHT,0.289498434052803,1,30,75,2025-11-25 16:55:27
yfx,F,27,0,3,26,W,0,RIGHT,1.02673267398495,1,30,75,2025-11-25 16:55:27
yfx,F,27,0,3,27,X,0,RIGHT,0.413759079994634,1,30,75,2025-11-25 16:55:27
yfx,F,27,0,3,28,Z,0,RIGHT,0.343787106918171,1,30,75,2025-11-25 16:55:27
yfx,F,27,0,3,29,W,0,RIGHT,0.496561452979222,1,30,75,2025-11-25 16:55:27
yfx,F,27,0,3,30,T,0,RIGHT,0.383198152994737,1,30,75,2025-11-25 16:55:27
yfx,F,27,0,3,31,N,0,RIGHT,0.365543702035211,1,30,75,2025-11-25 16:55:27
yfx,F,27,0,3,32,F,0,RIGHT,0.314230912015773,1,30,75,2025-11-25 16:55:27
yfx,F,27,0,3,33,K,0,RIGHT,0.366443927981891,1,30,75,2025-11-25 16:55:27
yfx,F,27,0,3,34,M,1,,NaN,0,30,75,2025-11-25 16:55:27
yfx,F,27,0,3,35,B,0,RIGHT,0.394704731996171,1,30,75,2025-11-25 16:55:27
yfx,F,27,0,3,36,X,0,RIGHT,0.38735399604775,1,30,75,2025-11-25 16:55:27
yfx,F,27,0,3,37,J,0,RIGHT,0.477421186980791,1,30,75,2025-11-25 16:55:27
yfx,F,27,0,3,38,M,1,LEFT,0.491115730954334,1,30,75,2025-11-25 16:55:27
yfx,F,27,0,3,39,J,0,RIGHT,0.413232309976593,1,30,75,2025-11-25 16:55:27
yfx,F,27,0,3,40,M,0,LEFT,0.500249002012424,0,30,75,2025-11-25 16:55:27
yfx,F,27,0,3,41,Q,0,RIGHT,0.318285197019577,1,30,75,2025-11-25 16:55:27
yfx,F,27,0,3,42,B,0,RIGHT,0.331787126022391,1,30,75,2025-11-25 16:55:27
yfx,F,27,0,3,43,V,0,LEFT,0.522700014989823,0,30,75,2025-11-25 16:55:27
yfx,F,27,0,3,44,P,0,RIGHT,0.39114429091569,1,30,75,2025-11-25 16:55:27
yfx,F,27,0,3,45,W,0,RIGHT,0.498445076984353,1,30,75,2025-11-25 16:55:27
yfx,F,27,0,3,46,M,1,LEFT,0.554653740953654,1,30,75,2025-11-25 16:55:27
yfx,F,27,0,3,47,L,0,RIGHT,0.43309882900212,1,30,75,2025-11-25 16:55:27
yfx,F,27,0,3,48,C,0,RIGHT,0.344405042007565,1,30,75,2025-11-25 16:55:27
yfx,F,27,0,3,49,F,0,RIGHT,0.36079267191235,1,30,75,2025-11-25 16:55:27
yfx,F,27,0,3,50,R,0,RIGHT,0.354537241975777,1,30,75,2025-11-25 16:55:27
yfx,F,27,0,3,51,J,0,RIGHT,0.346578011056408,1,30,75,2025-11-25 16:55:27
yfx,F,27,0,3,52,M,1,LEFT,0.474825266981497,1,30,75,2025-11-25 16:55:27
yfx,F,27,0,3,53,D,0,RIGHT,0.377042375970632,1,30,75,2025-11-25 16:55:27
yfx,F,27,0,3,54,Z,0,RIGHT,0.413607985014096,1,30,75,2025-11-25 16:55:27
yfx,F,27,0,3,55,N,0,RIGHT,0.400995203061029,1,30,75,2025-11-25 16:55:27
yfx,F,27,0,3,56,S,0,RIGHT,0.375069619971327,1,30,75,2025-11-25 16:55:27
yfx,F,27,0,3,57,Z,0,RIGHT,0.410415825084783,1,30,75,2025-11-25 16:55:27
yfx,F,27,0,3,58,H,0,RIGHT,0.353117198916152,1,30,75,2025-11-25 16:55:27
yfx,F,27,0,3,59,M,1,LEFT,0.551151963998564,1,30,75,2025-11-25 16:55:27
yfx,F,27,0,3,60,M,0,LEFT,0.529563991934992,0,30,75,2025-11-25 16:55:27
yfx,F,27,0,3,61,T,0,RIGHT,0.342368375044316,1,30,75,2025-11-25 16:55:27
yfx,F,27,0,3,62,V,0,RIGHT,0.392402206081897,1,30,75,2025-11-25 16:55:27
yfx,F,27,0,3,63,D,0,RIGHT,0.298924969043583,1,30,75,2025-11-25 16:55:27
yfx,F,27,0,3,64,F,0,RIGHT,0.363629325991496,1,30,75,2025-11-25 16:55:27
yfx,F,27,0,3,65,M,1,LEFT,0.520070065977052,1,30,75,2025-11-25 16:55:27
yfx,F,27,0,3,66,C,0,RIGHT,0.333654711022973,1,30,75,2025-11-25 16:55:27
yfx,F,27,0,3,67,M,1,LEFT,0.580518446979113,1,30,75,2025-11-25 16:55:27
yfx,F,27,0,3,68,M,1,LEFT,0.393753134994768,1,30,75,2025-11-25 16:55:27
yfx,F,27,0,3,69,F,0,RIGHT,0.467181491083466,1,30,75,2025-11-25 16:55:27
yfx,F,27,0,3,70,G,0,RIGHT,0.415906971902587,1,30,75,2025-11-25 16:55:27
yfx,F,27,0,3,71,X,0,RIGHT,0.345992356073111,1,30,75,2025-11-25 16:55:27
yfx,F,27,0,3,72,R,0,RIGHT,0.422192089026794,1,30,75,2025-11-25 16:55:27
yfx,F,27,0,3,73,M,0,LEFT,0.568499205051921,0,30,75,2025-11-25 16:55:27
yfx,F,27,0,3,74,X,0,RIGHT,0.371143043972552,1,30,75,2025-11-25 16:55:27
yfx,F,27,0,3,75,D,0,RIGHT,0.481152634019963,1,30,75,2025-11-25 16:55:27
yfx,F,27,0,3,76,M,1,LEFT,0.501040067058057,1,30,75,2025-11-25 16:55:27
yfx,F,27,0,3,77,S,0,RIGHT,0.343922105967067,1,30,75,2025-11-25 16:55:27
yfx,F,27,0,3,78,P,0,RIGHT,0.495724953012541,1,30,75,2025-11-25 16:55:27
yfx,F,27,0,3,79,F,0,RIGHT,0.363562995917164,1,30,75,2025-11-25 16:55:27
yfx,F,27,0,3,80,M,1,LEFT,0.350088370032609,1,30,75,2025-11-25 16:55:27
yfx,F,27,0,3,81,H,0,RIGHT,0.344590157968923,1,30,75,2025-11-25 16:55:27
yfx,F,27,0,3,82,M,1,LEFT,0.426473141997121,1,30,75,2025-11-25 16:55:27
yfx,F,27,0,3,83,G,0,RIGHT,0.42636527994182,1,30,75,2025-11-25 16:55:27
yfx,F,27,0,3,84,M,1,RIGHT,0.458481631008908,0,30,75,2025-11-25 16:55:27
yfx,F,27,0,3,85,M,1,LEFT,0.418779531028122,1,30,75,2025-11-25 16:55:27
yfx,F,27,0,3,86,G,0,RIGHT,0.613980688969605,1,30,75,2025-11-25 16:55:27
yfx,F,27,0,3,87,C,0,RIGHT,0.565936360973865,1,30,75,2025-11-25 16:55:27
yfx,F,27,0,3,88,L,0,RIGHT,0.383407822926529,1,30,75,2025-11-25 16:55:27
yfx,F,27,0,3,89,M,1,LEFT,0.520617224974558,1,30,75,2025-11-25 16:55:27
yfx,F,27,0,3,90,W,0,RIGHT,0.628147576004267,1,30,75,2025-11-25 16:55:27
yfx,F,27,0,3,91,F,0,RIGHT,0.492462998023257,1,30,75,2025-11-25 16:55:27
yfx,F,27,0,3,92,C,0,RIGHT,0.484630196006037,1,30,75,2025-11-25 16:55:27
yfx,F,27,0,3,93,M,1,LEFT,0.486591026070528,1,30,75,2025-11-25 16:55:27
yfx,F,27,0,3,94,M,1,LEFT,0.44345161691308,1,30,75,2025-11-25 16:55:27
yfx,F,27,0,3,95,D,0,RIGHT,0.33331456198357,1,30,75,2025-11-25 16:55:27
yfx,F,27,0,3,96,Z,0,RIGHT,0.424016686039977,1,30,75,2025-11-25 16:55:27
yfx,F,27,0,3,97,J,0,RIGHT,0.414496510988101,1,30,75,2025-11-25 16:55:27
yfx,F,27,0,3,98,H,0,RIGHT,0.377811957965605,1,30,75,2025-11-25 16:55:27
yfx,F,27,0,3,99,C,0,RIGHT,0.614470783038996,1,30,75,2025-11-25 16:55:27
yfx,F,27,0,3,100,H,0,RIGHT,0.713461036095396,1,30,75,2025-11-25 16:55:27
yfx,F,27,0,3,101,B,0,RIGHT,0.380111014004797,1,30,75,2025-11-25 16:55:27
yfx,F,27,0,3,102,N,0,RIGHT,0.528204041998833,1,30,75,2025-11-25 16:55:27
yfx,F,27,0,3,103,T,0,RIGHT,0.374231705907732,1,30,75,2025-11-25 16:55:27
yfx,F,27,0,3,104,Q,0,RIGHT,0.651230461080559,1,30,75,2025-11-25 16:55:27
yfx,F,27,0,3,105,C,0,RIGHT,0.476408669026569,1,30,75,2025-11-25 16:55:27
yfx,F,27,0,3,106,C,0,RIGHT,0.454632450942881,1,30,75,2025-11-25 16:55:27
yfx,F,27,0,3,107,T,0,RIGHT,0.296081586042419,1,30,75,2025-11-25 16:55:27
yfx,F,27,0,3,108,X,0,RIGHT,0.380343960947357,1,30,75,2025-11-25 16:55:27
yfx,F,27,0,3,109,N,0,RIGHT,0.324041181011125,1,30,75,2025-11-25 16:55:27
yfx,F,27,0,3,110,D,0,RIGHT,0.374585207086056,1,30,75,2025-11-25 16:55:27
yfx,F,27,0,3,111,V,0,RIGHT,0.440172321046703,1,30,75,2025-11-25 16:55:27
yfx,F,27,0,3,112,J,0,RIGHT,0.355116977007128,1,30,75,2025-11-25 16:55:27
yfx,F,27,0,3,113,H,0,RIGHT,0.352297878009267,1,30,75,2025-11-25 16:55:27
yfx,F,27,0,3,114,M,1,RIGHT,0.273409929010086,0,30,75,2025-11-25 16:55:27
yfx,F,27,0,3,115,B,0,RIGHT,0.431169076007791,1,30,75,2025-11-25 16:55:27
yfx,F,27,0,3,116,B,0,RIGHT,0.330306184012443,1,30,75,2025-11-25 16:55:27
yfx,F,27,0,3,117,M,1,LEFT,0.474074130062945,1,30,75,2025-11-25 16:55:27
yfx,F,27,0,3,118,Q,0,RIGHT,0.480389481061138,1,30,75,2025-11-25 16:55:27
yfx,F,27,0,3,119,M,1,LEFT,0.486214907024987,1,30,75,2025-11-25 16:55:27
yfx,F,27,0,3,120,S,0,RIGHT,0.474436121061444,1,30,75,2025-11-25 16:55:27
yfx,F,27,1,4,1,D,0,RIGHT,0.773261826019734,1,30,86,2025-11-25 17:04:12
yfx,F,27,1,4,2,S,0,RIGHT,1.38081054098438,1,30,86,2025-11-25 17:04:12
yfx,F,27,1,4,3,D,0,RIGHT,1.21199981798418,1,30,86,2025-11-25 17:04:12
yfx,F,27,1,4,4,D,1,LEFT,0.621562337037176,1,30,86,2025-11-25 17:04:12
yfx,F,27,1,4,5,R,0,RIGHT,0.643108007032424,1,30,86,2025-11-25 17:04:12
yfx,F,27,1,4,6,J,0,RIGHT,0.534763726987876,1,30,86,2025-11-25 17:04:12
yfx,F,27,1,4,7,R,0,RIGHT,0.376629844075069,1,30,86,2025-11-25 17:04:12
yfx,F,27,1,4,8,T,0,RIGHT,0.381322431028821,1,30,86,2025-11-25 17:04:12
yfx,F,27,1,4,9,P,0,RIGHT,0.790891134995036,1,30,86,2025-11-25 17:04:12
yfx,F,27,1,4,10,T,0,RIGHT,0.386053335038014,1,30,86,2025-11-25 17:04:12
yfx,F,27,1,4,11,G,0,RIGHT,1.20012125291396,1,30,86,2025-11-25 17:04:12
yfx,F,27,1,4,12,G,1,LEFT,0.775311022996902,1,30,86,2025-11-25 17:04:12
yfx,F,27,1,4,13,Z,0,RIGHT,0.499936948996037,1,30,86,2025-11-25 17:04:12
yfx,F,27,1,4,14,V,0,RIGHT,0.607933279010467,1,30,86,2025-11-25 17:04:12
yfx,F,27,1,4,15,V,1,LEFT,0.418826903915033,1,30,86,2025-11-25 17:04:12
yfx,F,27,1,4,16,K,0,RIGHT,0.36710645200219,1,30,86,2025-11-25 17:04:12
yfx,F,27,1,4,17,L,0,RIGHT,0.520587763050571,1,30,86,2025-11-25 17:04:12
yfx,F,27,1,4,18,S,0,RIGHT,0.386068232008256,1,30,86,2025-11-25 17:04:12
yfx,F,27,1,4,19,P,0,RIGHT,0.390834347112104,1,30,86,2025-11-25 17:04:12
yfx,F,27,1,4,20,T,0,RIGHT,0.378275193041191,1,30,86,2025-11-25 17:04:12
yfx,F,27,1,4,21,J,0,RIGHT,0.497982749016955,1,30,86,2025-11-25 17:04:12
yfx,F,27,1,4,22,F,0,RIGHT,0.540534911095165,1,30,86,2025-11-25 17:04:12
yfx,F,27,1,4,23,C,0,RIGHT,0.459959237952717,1,30,86,2025-11-25 17:04:12
yfx,F,27,1,4,24,T,0,RIGHT,0.761596105992794,1,30,86,2025-11-25 17:04:12
yfx,F,27,1,4,25,F,0,RIGHT,0.497317282948643,1,30,86,2025-11-25 17:04:12
yfx,F,27,1,4,26,F,1,LEFT,0.351789579959586,1,30,86,2025-11-25 17:04:12
yfx,F,27,1,4,27,P,0,RIGHT,0.391920528956689,1,30,86,2025-11-25 17:04:12
yfx,F,27,1,4,28,G,0,RIGHT,0.520480784936808,1,30,86,2025-11-25 17:04:12
yfx,F,27,1,4,29,R,0,RIGHT,0.382453969912603,1,30,86,2025-11-25 17:04:12
yfx,F,27,1,4,30,M,0,RIGHT,0.503146553994156,1,30,86,2025-11-25 17:04:12
yfx,F,27,1,4,31,D,0,RIGHT,0.373601326951757,1,30,86,2025-11-25 17:04:12
yfx,F,27,1,4,32,T,0,RIGHT,0.520753293996677,1,30,86,2025-11-25 17:04:12
yfx,F,27,1,4,33,T,1,LEFT,0.594845287036151,1,30,86,2025-11-25 17:04:12
yfx,F,27,1,4,34,J,0,RIGHT,0.32042913895566,1,30,86,2025-11-25 17:04:12
yfx,F,27,1,4,35,J,1,RIGHT,0.430279489955865,0,30,86,2025-11-25 17:04:12
yfx,F,27,1,4,36,P,0,RIGHT,0.404492076020688,1,30,86,2025-11-25 17:04:12
yfx,F,27,1,4,37,P,1,LEFT,0.35435335803777,1,30,86,2025-11-25 17:04:12
yfx,F,27,1,4,38,L,0,RIGHT,0.47554690297693,1,30,86,2025-11-25 17:04:12
yfx,F,27,1,4,39,C,0,RIGHT,0.483453696942888,1,30,86,2025-11-25 17:04:12
yfx,F,27,1,4,40,F,0,RIGHT,0.47184118302539,1,30,86,2025-11-25 17:04:12
yfx,F,27,1,4,41,F,1,LEFT,0.626527679036371,1,30,86,2025-11-25 17:04:12
yfx,F,27,1,4,42,H,0,RIGHT,0.528933929977939,1,30,86,2025-11-25 17:04:12
yfx,F,27,1,4,43,H,1,LEFT,0.56392148998566,1,30,86,2025-11-25 17:04:12
yfx,F,27,1,4,44,Z,0,RIGHT,0.372092687990516,1,30,86,2025-11-25 17:04:12
yfx,F,27,1,4,45,L,0,RIGHT,0.733271500910632,1,30,86,2025-11-25 17:04:12
yfx,F,27,1,4,46,S,0,RIGHT,0.541983054019511,1,30,86,2025-11-25 17:04:12
yfx,F,27,1,4,47,T,0,RIGHT,0.675986780086532,1,30,86,2025-11-25 17:04:12
yfx,F,27,1,4,48,L,0,RIGHT,0.453057533013634,1,30,86,2025-11-25 17:04:12
yfx,F,27,1,4,49,L,1,LEFT,0.654936220031232,1,30,86,2025-11-25 17:04:12
yfx,F,27,1,4,50,D,0,RIGHT,0.578012886922807,1,30,86,2025-11-25 17:04:12
yfx,F,27,1,4,51,D,1,LEFT,0.414287447929382,1,30,86,2025-11-25 17:04:12
yfx,F,27,1,4,52,F,0,RIGHT,0.74389619496651,1,30,86,2025-11-25 17:04:12
yfx,F,27,1,4,53,J,0,RIGHT,0.498573194025084,1,30,86,2025-11-25 17:04:12
yfx,F,27,1,4,54,J,1,LEFT,0.667494583060034,1,30,86,2025-11-25 17:04:12
yfx,F,27,1,4,55,M,0,RIGHT,0.46180769696366,1,30,86,2025-11-25 17:04:12
yfx,F,27,1,4,56,T,0,RIGHT,0.432143345009536,1,30,86,2025-11-25 17:04:12
yfx,F,27,1,4,57,K,0,RIGHT,0.504081833991222,1,30,86,2025-11-25 17:04:12
yfx,F,27,1,4,58,H,0,RIGHT,0.393147011986002,1,30,86,2025-11-25 17:04:12
yfx,F,27,1,4,59,B,0,RIGHT,0.520383497001603,1,30,86,2025-11-25 17:04:12
yfx,F,27,1,4,60,R,0,RIGHT,0.579784468980506,1,30,86,2025-11-25 17:04:12
yfx,F,27,1,4,61,L,0,RIGHT,0.354853759985417,1,30,86,2025-11-25 17:04:12
yfx,F,27,1,4,62,M,0,RIGHT,0.631889518001117,1,30,86,2025-11-25 17:04:12
yfx,F,27,1,4,63,Q,0,RIGHT,0.352779961074702,1,30,86,2025-11-25 17:04:12
yfx,F,27,1,4,64,C,0,RIGHT,0.37896553997416,1,30,86,2025-11-25 17:04:12
yfx,F,27,1,4,65,C,1,,NaN,0,30,86,2025-11-25 17:04:12
yfx,F,27,1,4,66,T,0,RIGHT,0.460075726965442,1,30,86,2025-11-25 17:04:12
yfx,F,27,1,4,67,T,1,LEFT,0.548625985975377,1,30,86,2025-11-25 17:04:12
yfx,F,27,1,4,68,D,0,RIGHT,0.470343246008269,1,30,86,2025-11-25 17:04:12
yfx,F,27,1,4,69,F,0,RIGHT,1.08325724001043,1,30,86,2025-11-25 17:04:12
yfx,F,27,1,4,70,C,0,RIGHT,0.616536919027567,1,30,86,2025-11-25 17:04:12
yfx,F,27,1,4,71,C,1,RIGHT,0.539494558004662,0,30,86,2025-11-25 17:04:12
yfx,F,27,1,4,72,M,0,RIGHT,0.386005988926627,1,30,86,2025-11-25 17:04:12
yfx,F,27,1,4,73,R,0,RIGHT,0.575488716014661,1,30,86,2025-11-25 17:04:12
yfx,F,27,1,4,74,R,1,LEFT,0.428524383925833,1,30,86,2025-11-25 17:04:12
yfx,F,27,1,4,75,S,1,RIGHT,0.375747559941374,0,30,86,2025-11-25 17:04:12
yfx,F,27,1,4,76,D,0,RIGHT,0.407058469951153,1,30,86,2025-11-25 17:04:12
yfx,F,27,1,4,77,D,1,LEFT,0.659890337963589,1,30,86,2025-11-25 17:04:12
yfx,F,27,1,4,78,D,0,LEFT,0.664386574993841,0,30,86,2025-11-25 17:04:12
yfx,F,27,1,4,79,D,1,LEFT,0.418463782058097,1,30,86,2025-11-25 17:04:12
yfx,F,27,1,4,80,C,0,RIGHT,0.35632723395247,1,30,86,2025-11-25 17:04:12
yfx,F,27,1,4,81,F,0,RIGHT,0.461843764060177,1,30,86,2025-11-25 17:04:12
yfx,F,27,1,4,82,G,0,RIGHT,0.520714604994282,1,30,86,2025-11-25 17:04:12
yfx,F,27,1,4,83,F,0,RIGHT,0.48319411999546,1,30,86,2025-11-25 17:04:12
yfx,F,27,1,4,84,K,0,RIGHT,0.346474898979068,1,30,86,2025-11-25 17:04:12
yfx,F,27,1,4,85,K,1,LEFT,0.391907528042793,1,30,86,2025-11-25 17:04:12
yfx,F,27,1,4,86,G,0,RIGHT,0.350868234061636,1,30,86,2025-11-25 17:04:12
yfx,F,27,1,4,87,H,0,RIGHT,0.61737264203839,1,30,86,2025-11-25 17:04:12
yfx,F,27,1,4,88,W,0,RIGHT,0.39152740908321,1,30,86,2025-11-25 17:04:12
yfx,F,27,1,4,89,R,0,RIGHT,0.589108887012117,1,30,86,2025-11-25 17:04:12
yfx,F,27,1,4,90,N,0,RIGHT,0.541873647016473,1,30,86,2025-11-25 17:04:12
yfx,F,27,1,4,91,F,0,RIGHT,0.378697611973621,1,30,86,2025-11-25 17:04:12
yfx,F,27,1,4,92,H,0,RIGHT,0.442768585984595,1,30,86,2025-11-25 17:04:12
yfx,F,27,1,4,93,C,0,RIGHT,0.451766365906224,1,30,86,2025-11-25 17:04:12
yfx,F,27,1,4,94,X,0,RIGHT,0.653708022087812,1,30,86,2025-11-25 17:04:12
yfx,F,27,1,4,95,R,0,RIGHT,0.717014480032958,1,30,86,2025-11-25 17:04:12
yfx,F,27,1,4,96,N,0,RIGHT,0.809865058050491,1,30,86,2025-11-25 17:04:12
yfx,F,27,1,4,97,H,0,RIGHT,0.636614055954851,1,30,86,2025-11-25 17:04:12
yfx,F,27,1,4,98,F,0,RIGHT,0.419049907010049,1,30,86,2025-11-25 17:04:12
yfx,F,27,1,4,99,F,1,RIGHT,0.974031978985295,0,30,86,2025-11-25 17:04:12
yfx,F,27,1,4,100,Z,0,RIGHT,0.458964879973792,1,30,86,2025-11-25 17:04:12
yfx,F,27,1,4,101,F,0,RIGHT,0.43433321104385,1,30,86,2025-11-25 17:04:12
yfx,F,27,1,4,102,F,1,LEFT,0.560572536895052,1,30,86,2025-11-25 17:04:12
yfx,F,27,1,4,103,L,0,RIGHT,0.402621913934126,1,30,86,2025-11-25 17:04:12
yfx,F,27,1,4,104,C,0,RIGHT,0.441939090960659,1,30,86,2025-11-25 17:04:12
yfx,F,27,1,4,105,R,0,RIGHT,0.421712066978216,1,30,86,2025-11-25 17:04:12
yfx,F,27,1,4,106,K,0,RIGHT,0.530137095949613,1,30,86,2025-11-25 17:04:12
yfx,F,27,1,4,107,Z,0,RIGHT,0.575564861996099,1,30,86,2025-11-25 17:04:12
yfx,F,27,1,4,108,K,0,RIGHT,0.417905449052341,1,30,86,2025-11-25 17:04:12
yfx,F,27,1,4,109,Q,0,RIGHT,0.559481181902811,1,30,86,2025-11-25 17:04:12
yfx,F,27,1,4,110,D,0,RIGHT,0.418817755067721,1,30,86,2025-11-25 17:04:12
yfx,F,27,1,4,111,L,0,RIGHT,0.389242336037569,1,30,86,2025-11-25 17:04:12
yfx,F,27,1,4,112,L,1,RIGHT,0.355787656037137,0,30,86,2025-11-25 17:04:12
yfx,F,27,1,4,113,F,1,RIGHT,0.43656195292715,0,30,86,2025-11-25 17:04:12
yfx,F,27,1,4,114,W,0,RIGHT,0.482153997058049,1,30,86,2025-11-25 17:04:12
yfx,F,27,1,4,115,J,0,RIGHT,0.328157684067264,1,30,86,2025-11-25 17:04:12
yfx,F,27,1,4,116,S,0,RIGHT,0.37810951389838,1,30,86,2025-11-25 17:04:12
yfx,F,27,1,4,117,H,0,RIGHT,0.356152993044816,1,30,86,2025-11-25 17:04:12
yfx,F,27,1,4,118,P,0,RIGHT,0.377561833942309,1,30,86,2025-11-25 17:04:12
yfx,F,27,1,4,119,V,0,RIGHT,0.356298280064948,1,30,86,2025-11-25 17:04:12
yfx,F,27,1,4,120,P,0,RIGHT,0.335634846007451,1,30,86,2025-11-25 17:04:12
yfx,F,27,1,5,1,M,0,,NaN,0,30,90,2025-11-25 17:11:27
yfx,F,27,1,5,2,G,0,RIGHT,0.409040204016492,1,30,90,2025-11-25 17:11:27
yfx,F,27,1,5,3,C,0,RIGHT,0.57742604392115,1,30,90,2025-11-25 17:11:27
yfx,F,27,1,5,4,V,0,RIGHT,0.738771922886372,1,30,90,2025-11-25 17:11:27
yfx,F,27,1,5,5,F,0,RIGHT,0.567891314043663,1,30,90,2025-11-25 17:11:27
yfx,F,27,1,5,6,G,0,RIGHT,0.689439486013725,1,30,90,2025-11-25 17:11:27
yfx,F,27,1,5,7,R,0,RIGHT,0.484358932939358,1,30,90,2025-11-25 17:11:27
yfx,F,27,1,5,8,W,0,RIGHT,0.377059857011773,1,30,90,2025-11-25 17:11:27
yfx,F,27,1,5,9,M,0,RIGHT,0.551251374999993,1,30,90,2025-11-25 17:11:27
yfx,F,27,1,5,10,M,1,LEFT,0.70077410293743,1,30,90,2025-11-25 17:11:27
yfx,F,27,1,5,11,D,0,RIGHT,0.404388294089586,1,30,90,2025-11-25 17:11:27
yfx,F,27,1,5,12,Z,0,RIGHT,0.420166685013101,1,30,90,2025-11-25 17:11:27
yfx,F,27,1,5,13,N,0,RIGHT,0.404713200987317,1,30,90,2025-11-25 17:11:27
yfx,F,27,1,5,14,R,0,RIGHT,0.547151601058431,1,30,90,2025-11-25 17:11:27
yfx,F,27,1,5,15,B,0,RIGHT,0.552195542957634,1,30,90,2025-11-25 17:11:27
yfx,F,27,1,5,16,V,0,RIGHT,0.411447677994147,1,30,90,2025-11-25 17:11:27
yfx,F,27,1,5,17,S,0,RIGHT,0.355482749990188,1,30,90,2025-11-25 17:11:27
yfx,F,27,1,5,18,D,0,RIGHT,0.346742133959197,1,30,90,2025-11-25 17:11:27
yfx,F,27,1,5,19,N,0,RIGHT,0.354845853988081,1,30,90,2025-11-25 17:11:27
yfx,F,27,1,5,20,J,0,RIGHT,0.440351524041034,1,30,90,2025-11-25 17:11:27
yfx,F,27,1,5,21,P,0,RIGHT,0.412938514025882,1,30,90,2025-11-25 17:11:27
yfx,F,27,1,5,22,K,0,RIGHT,0.450845945044421,1,30,90,2025-11-25 17:11:27
yfx,F,27,1,5,23,L,0,RIGHT,0.4155210260069,1,30,90,2025-11-25 17:11:27
yfx,F,27,1,5,24,F,0,RIGHT,0.426667908090167,1,30,90,2025-11-25 17:11:27
yfx,F,27,1,5,25,H,0,RIGHT,0.379966634092852,1,30,90,2025-11-25 17:11:27
yfx,F,27,1,5,26,B,0,RIGHT,0.347895928076468,1,30,90,2025-11-25 17:11:27
yfx,F,27,1,5,27,X,0,RIGHT,0.404436927987263,1,30,90,2025-11-25 17:11:27
yfx,F,27,1,5,28,X,1,LEFT,0.628066163044423,1,30,90,2025-11-25 17:11:27
yfx,F,27,1,5,29,X,0,LEFT,0.413461301010102,0,30,90,2025-11-25 17:11:27
yfx,F,27,1,5,30,F,0,RIGHT,0.411600490915589,1,30,90,2025-11-25 17:11:27
yfx,F,27,1,5,31,X,0,RIGHT,0.619202431989834,1,30,90,2025-11-25 17:11:27
yfx,F,27,1,5,32,T,0,RIGHT,0.772372934967279,1,30,90,2025-11-25 17:11:27
yfx,F,27,1,5,33,T,1,LEFT,0.582760173943825,1,30,90,2025-11-25 17:11:27
yfx,F,27,1,5,34,L,0,RIGHT,0.550204608007334,1,30,90,2025-11-25 17:11:27
yfx,F,27,1,5,35,G,0,RIGHT,0.869369352003559,1,30,90,2025-11-25 17:11:27
yfx,F,27,1,5,36,T,0,RIGHT,0.834775198018178,1,30,90,2025-11-25 17:11:27
yfx,F,27,1,5,37,G,0,RIGHT,0.398834599996917,1,30,90,2025-11-25 17:11:27
yfx,F,27,1,5,38,C,0,RIGHT,0.401347698061727,1,30,90,2025-11-25 17:11:27
yfx,F,27,1,5,39,C,1,RIGHT,0.396725928992964,0,30,90,2025-11-25 17:11:27
yfx,F,27,1,5,40,Q,0,RIGHT,0.384081567986868,1,30,90,2025-11-25 17:11:27
yfx,F,27,1,5,41,S,0,RIGHT,0.410106653929688,1,30,90,2025-11-25 17:11:27
yfx,F,27,1,5,42,Q,0,RIGHT,0.320503307972103,1,30,90,2025-11-25 17:11:27
yfx,F,27,1,5,43,Q,1,LEFT,0.75215473305434,1,30,90,2025-11-25 17:11:27
yfx,F,27,1,5,44,Q,1,LEFT,0.467510386952199,1,30,90,2025-11-25 17:11:27
yfx,F,27,1,5,45,V,0,RIGHT,0.5540929089766,1,30,90,2025-11-25 17:11:27
yfx,F,27,1,5,46,J,0,RIGHT,0.574637192999944,1,30,90,2025-11-25 17:11:27
yfx,F,27,1,5,47,V,0,RIGHT,0.426792911021039,1,30,90,2025-11-25 17:11:27
yfx,F,27,1,5,48,S,0,RIGHT,0.379733004025184,1,30,90,2025-11-25 17:11:27
yfx,F,27,1,5,49,S,1,LEFT,0.581215608981438,1,30,90,2025-11-25 17:11:27
yfx,F,27,1,5,50,M,0,RIGHT,0.758106751949526,1,30,90,2025-11-25 17:11:27
yfx,F,27,1,5,51,R,0,RIGHT,0.488975736079738,1,30,90,2025-11-25 17:11:27
yfx,F,27,1,5,52,R,1,RIGHT,0.780955624999478,0,30,90,2025-11-25 17:11:27
yfx,F,27,1,5,53,L,0,RIGHT,0.623215210973285,1,30,90,2025-11-25 17:11:27
yfx,F,27,1,5,54,C,0,RIGHT,0.495893797022291,1,30,90,2025-11-25 17:11:27
yfx,F,27,1,5,55,W,0,RIGHT,0.328343717963435,1,30,90,2025-11-25 17:11:27
yfx,F,27,1,5,56,P,0,RIGHT,0.349675811943598,1,30,90,2025-11-25 17:11:27
yfx,F,27,1,5,57,P,1,LEFT,0.566385381040163,1,30,90,2025-11-25 17:11:27
yfx,F,27,1,5,58,Z,0,RIGHT,0.464693504036404,1,30,90,2025-11-25 17:11:27
yfx,F,27,1,5,59,Z,1,LEFT,0.766750511014834,1,30,90,2025-11-25 17:11:27
yfx,F,27,1,5,60,G,1,RIGHT,0.468885625014082,0,30,90,2025-11-25 17:11:27
yfx,F,27,1,5,61,P,0,RIGHT,0.395289061008953,1,30,90,2025-11-25 17:11:27
yfx,F,27,1,5,62,K,0,RIGHT,0.502029328024946,1,30,90,2025-11-25 17:11:27
yfx,F,27,1,5,63,D,0,RIGHT,0.522524360916577,1,30,90,2025-11-25 17:11:27
yfx,F,27,1,5,64,D,1,LEFT,0.568596687051468,1,30,90,2025-11-25 17:11:27
yfx,F,27,1,5,65,M,0,RIGHT,0.341804779018275,1,30,90,2025-11-25 17:11:27
yfx,F,27,1,5,66,F,0,RIGHT,0.452092895982787,1,30,90,2025-11-25 17:11:27
yfx,F,27,1,5,67,S,0,RIGHT,0.505008134059608,1,30,90,2025-11-25 17:11:27
yfx,F,27,1,5,68,K,0,RIGHT,0.52058757096529,1,30,90,2025-11-25 17:11:27
yfx,F,27,1,5,69,V,0,RIGHT,0.452315609902143,1,30,90,2025-11-25 17:11:27
yfx,F,27,1,5,70,R,0,RIGHT,0.374975039972924,1,30,90,2025-11-25 17:11:27
yfx,F,27,1,5,71,R,1,LEFT,0.68817171594128,1,30,90,2025-11-25 17:11:27
yfx,F,27,1,5,72,F,0,RIGHT,0.468137597898021,1,30,90,2025-11-25 17:11:27
yfx,F,27,1,5,73,Z,0,RIGHT,0.520532420021482,1,30,90,2025-11-25 17:11:27
yfx,F,27,1,5,74,Z,1,RIGHT,0.502772753941827,0,30,90,2025-11-25 17:11:27
yfx,F,27,1,5,75,H,1,RIGHT,0.492340805009007,0,30,90,2025-11-25 17:11:27
yfx,F,27,1,5,76,G,0,RIGHT,0.520758915925398,1,30,90,2025-11-25 17:11:27
yfx,F,27,1,5,77,L,0,RIGHT,0.554719490930438,1,30,90,2025-11-25 17:11:27
yfx,F,27,1,5,78,L,1,LEFT,0.753011155989952,1,30,90,2025-11-25 17:11:27
yfx,F,27,1,5,79,R,0,RIGHT,0.533748854068108,1,30,90,2025-11-25 17:11:27
yfx,F,27,1,5,80,F,0,RIGHT,0.447554433019832,1,30,90,2025-11-25 17:11:27
yfx,F,27,1,5,81,B,0,RIGHT,0.495333075989038,1,30,90,2025-11-25 17:11:27
yfx,F,27,1,5,82,S,0,RIGHT,0.620655430015177,1,30,90,2025-11-25 17:11:27
yfx,F,27,1,5,83,J,0,RIGHT,0.569252807996236,1,30,90,2025-11-25 17:11:27
yfx,F,27,1,5,84,R,0,RIGHT,0.3892796599539,1,30,90,2025-11-25 17:11:27
yfx,F,27,1,5,85,K,0,RIGHT,0.520277264993638,1,30,90,2025-11-25 17:11:27
yfx,F,27,1,5,86,Q,0,RIGHT,0.646511450991966,1,30,90,2025-11-25 17:11:27
yfx,F,27,1,5,87,Q,1,,NaN,0,30,90,2025-11-25 17:11:27
yfx,F,27,1,5,88,X,0,RIGHT,0.529798140982166,1,30,90,2025-11-25 17:11:27
yfx,F,27,1,5,89,T,0,RIGHT,0.975175407947972,1,30,90,2025-11-25 17:11:27
yfx,F,27,1,5,90,S,0,RIGHT,0.372434205957688,1,30,90,2025-11-25 17:11:27
yfx,F,27,1,5,91,V,0,RIGHT,0.492765481001697,1,30,90,2025-11-25 17:11:27
yfx,F,27,1,5,92,K,0,RIGHT,0.492769436910748,1,30,90,2025-11-25 17:11:27
yfx,F,27,1,5,93,Q,0,RIGHT,0.769758334965445,1,30,90,2025-11-25 17:11:27
yfx,F,27,1,5,94,N,0,RIGHT,0.331652769003995,1,30,90,2025-11-25 17:11:27
yfx,F,27,1,5,95,P,0,RIGHT,0.362451652064919,1,30,90,2025-11-25 17:11:27
yfx,F,27,1,5,96,H,0,RIGHT,0.53726073296275,1,30,90,2025-11-25 17:11:27
yfx,F,27,1,5,97,G,0,RIGHT,0.549812501994893,1,30,90,2025-11-25 17:11:27
yfx,F,27,1,5,98,M,0,RIGHT,0.592455625999719,1,30,90,2025-11-25 17:11:27
yfx,F,27,1,5,99,G,0,RIGHT,0.45377063495107,1,30,90,2025-11-25 17:11:27
yfx,F,27,1,5,100,V,0,RIGHT,0.662414903985336,1,30,90,2025-11-25 17:11:27
yfx,F,27,1,5,101,Z,0,RIGHT,0.606766866985708,1,30,90,2025-11-25 17:11:27
yfx,F,27,1,5,102,B,0,RIGHT,0.49285482801497,1,30,90,2025-11-25 17:11:27
yfx,F,27,1,5,103,P,0,RIGHT,0.341820811037906,1,30,90,2025-11-25 17:11:27
yfx,F,27,1,5,104,C,0,RIGHT,0.424188953009434,1,30,90,2025-11-25 17:11:27
yfx,F,27,1,5,105,V,0,RIGHT,0.390526995062828,1,30,90,2025-11-25 17:11:27
yfx,F,27,1,5,106,V,1,LEFT,0.54477328597568,1,30,90,2025-11-25 17:11:27
yfx,F,27,1,5,107,C,0,RIGHT,0.309857108979486,1,30,90,2025-11-25 17:11:27
yfx,F,27,1,5,108,X,0,RIGHT,0.503144994028844,1,30,90,2025-11-25 17:11:27
yfx,F,27,1,5,109,X,1,LEFT,0.699826217954978,1,30,90,2025-11-25 17:11:27
yfx,F,27,1,5,110,X,1,LEFT,0.520251963986084,1,30,90,2025-11-25 17:11:27
yfx,F,27,1,5,111,T,0,RIGHT,0.467411871999502,1,30,90,2025-11-25 17:11:27
yfx,F,27,1,5,112,T,1,LEFT,0.486853700946085,1,30,90,2025-11-25 17:11:27
yfx,F,27,1,5,113,W,0,RIGHT,0.460006249020807,1,30,90,2025-11-25 17:11:27
yfx,F,27,1,5,114,W,1,RIGHT,0.571821274003014,0,30,90,2025-11-25 17:11:27
yfx,F,27,1,5,115,X,1,RIGHT,1.03010620002169,0,30,90,2025-11-25 17:11:27
yfx,F,27,1,5,116,D,0,RIGHT,0.462361386977136,1,30,90,2025-11-25 17:11:27
yfx,F,27,1,5,117,H,0,RIGHT,0.328766366001219,1,30,90,2025-11-25 17:11:27
yfx,F,27,1,5,118,F,0,RIGHT,0.61795667395927,1,30,90,2025-11-25 17:11:27
yfx,F,27,1,5,119,F,1,LEFT,0.617809672956355,1,30,90,2025-11-25 17:11:27
yfx,F,27,1,5,120,F,0,LEFT,1.01477944699582,0,30,90,2025-11-25 17:11:27
yfx,F,27,1,6,1,Z,0,RIGHT,1.94100645906292,1,30,95,2025-11-25 17:18:43
yfx,F,27,1,6,2,J,0,RIGHT,0.442443146952428,1,30,95,2025-11-25 17:18:43
yfx,F,27,1,6,3,Z,0,RIGHT,0.93699027900584,1,30,95,2025-11-25 17:18:43
yfx,F,27,1,6,4,Z,1,LEFT,0.571167033980601,1,30,95,2025-11-25 17:18:43
yfx,F,27,1,6,5,W,0,RIGHT,0.33163702301681,1,30,95,2025-11-25 17:18:43
yfx,F,27,1,6,6,W,1,LEFT,0.541878290008754,1,30,95,2025-11-25 17:18:43
yfx,F,27,1,6,7,K,0,RIGHT,0.327387431054376,1,30,95,2025-11-25 17:18:43
yfx,F,27,1,6,8,G,0,RIGHT,0.375347887980752,1,30,95,2025-11-25 17:18:43
yfx,F,27,1,6,9,D,0,RIGHT,0.402288993005641,1,30,95,2025-11-25 17:18:43
yfx,F,27,1,6,10,J,0,RIGHT,0.411379778990522,1,30,95,2025-11-25 17:18:43
yfx,F,27,1,6,11,J,1,LEFT,0.634264422929846,1,30,95,2025-11-25 17:18:43
yfx,F,27,1,6,12,T,0,RIGHT,0.52018870098982,1,30,95,2025-11-25 17:18:43
yfx,F,27,1,6,13,R,0,LEFT,0.482100012013689,0,30,95,2025-11-25 17:18:43
yfx,F,27,1,6,14,R,1,LEFT,0.685273893061094,1,30,95,2025-11-25 17:18:43
yfx,F,27,1,6,15,B,1,RIGHT,0.622817156021483,0,30,95,2025-11-25 17:18:43
yfx,F,27,1,6,16,X,0,RIGHT,0.588636660948396,1,30,95,2025-11-25 17:18:43
yfx,F,27,1,6,17,X,1,LEFT,0.595481858006679,1,30,95,2025-11-25 17:18:43
yfx,F,27,1,6,18,B,0,RIGHT,0.363088264013641,1,30,95,2025-11-25 17:18:43
yfx,F,27,1,6,19,L,0,RIGHT,0.543066218029708,1,30,95,2025-11-25 17:18:43
yfx,F,27,1,6,20,S,0,RIGHT,0.53595890395809,1,30,95,2025-11-25 17:18:43
yfx,F,27,1,6,21,R,0,RIGHT,0.336990955052897,1,30,95,2025-11-25 17:18:43
yfx,F,27,1,6,22,G,0,RIGHT,0.521214682026766,1,30,95,2025-11-25 17:18:43
yfx,F,27,1,6,23,J,0,RIGHT,0.364115833071992,1,30,95,2025-11-25 17:18:43
yfx,F,27,1,6,24,R,0,RIGHT,0.688707708963193,1,30,95,2025-11-25 17:18:43
yfx,F,27,1,6,25,M,0,RIGHT,0.531856184010394,1,30,95,2025-11-25 17:18:43
yfx,F,27,1,6,26,Q,0,RIGHT,0.323642270988785,1,30,95,2025-11-25 17:18:43
yfx,F,27,1,6,27,Q,1,RIGHT,0.346827283035964,0,30,95,2025-11-25 17:18:43
yfx,F,27,1,6,28,F,0,RIGHT,0.405013412935659,1,30,95,2025-11-25 17:18:43
yfx,F,27,1,6,29,F,1,LEFT,0.628350930986926,1,30,95,2025-11-25 17:18:43
yfx,F,27,1,6,30,V,1,RIGHT,1.10892798204441,0,30,95,2025-11-25 17:18:43
yfx,F,27,1,6,31,X,0,RIGHT,0.363575102994218,1,30,95,2025-11-25 17:18:43
yfx,F,27,1,6,32,D,0,RIGHT,0.359403089038096,1,30,95,2025-11-25 17:18:43
yfx,F,27,1,6,33,G,0,RIGHT,0.409340981044807,1,30,95,2025-11-25 17:18:43
yfx,F,27,1,6,34,C,0,LEFT,0.759146856958978,0,30,95,2025-11-25 17:18:43
yfx,F,27,1,6,35,N,0,RIGHT,0.489397046971135,1,30,95,2025-11-25 17:18:43
yfx,F,27,1,6,36,N,1,LEFT,0.843204240081832,1,30,95,2025-11-25 17:18:43
yfx,F,27,1,6,37,N,1,LEFT,0.646705558989197,1,30,95,2025-11-25 17:18:43
yfx,F,27,1,6,38,C,0,RIGHT,0.382607973995619,1,30,95,2025-11-25 17:18:43
yfx,F,27,1,6,39,B,0,RIGHT,0.704275868018158,1,30,95,2025-11-25 17:18:43
yfx,F,27,1,6,40,B,1,LEFT,0.606512040947564,1,30,95,2025-11-25 17:18:43
yfx,F,27,1,6,41,T,0,RIGHT,0.658022515010089,1,30,95,2025-11-25 17:18:43
yfx,F,27,1,6,42,H,0,RIGHT,0.470520623959601,1,30,95,2025-11-25 17:18:43
yfx,F,27,1,6,43,H,1,LEFT,0.689054158981889,1,30,95,2025-11-25 17:18:43
yfx,F,27,1,6,44,K,0,RIGHT,0.260282799950801,1,30,95,2025-11-25 17:18:43
yfx,F,27,1,6,45,K,1,LEFT,0.693559244042262,1,30,95,2025-11-25 17:18:43
yfx,F,27,1,6,46,N,0,RIGHT,0.380437134997919,1,30,95,2025-11-25 17:18:43
yfx,F,27,1,6,47,X,0,RIGHT,0.457700502010994,1,30,95,2025-11-25 17:18:43
yfx,F,27,1,6,48,P,0,RIGHT,0.522943247924559,1,30,95,2025-11-25 17:18:43
yfx,F,27,1,6,49,C,0,RIGHT,0.408818159019575,1,30,95,2025-11-25 17:18:43
yfx,F,27,1,6,50,L,0,RIGHT,0.325714768026955,1,30,95,2025-11-25 17:18:43
yfx,F,27,1,6,51,C,0,LEFT,0.714347408036701,0,30,95,2025-11-25 17:18:43
yfx,F,27,1,6,52,N,0,RIGHT,0.780413837986998,1,30,95,2025-11-25 17:18:43
yfx,F,27,1,6,53,L,0,RIGHT,0.488219112041406,1,30,95,2025-11-25 17:18:43
yfx,F,27,1,6,54,Z,0,RIGHT,0.459181393031031,1,30,95,2025-11-25 17:18:43
yfx,F,27,1,6,55,T,0,RIGHT,0.35255299101118,1,30,95,2025-11-25 17:18:43
yfx,F,27,1,6,56,M,0,RIGHT,0.420591365080327,1,30,95,2025-11-25 17:18:43
yfx,F,27,1,6,57,W,0,RIGHT,0.31648388702888,1,30,95,2025-11-25 17:18:43
yfx,F,27,1,6,58,D,0,RIGHT,0.288891709060408,1,30,95,2025-11-25 17:18:43
yfx,F,27,1,6,59,L,0,RIGHT,0.325313325971365,1,30,95,2025-11-25 17:18:43
yfx,F,27,1,6,60,X,0,RIGHT,0.39290475693997,1,30,95,2025-11-25 17:18:43
yfx,F,27,1,6,61,W,0,RIGHT,0.295945229008794,1,30,95,2025-11-25 17:18:43
yfx,F,27,1,6,62,R,0,RIGHT,0.419635280966759,1,30,95,2025-11-25 17:18:43
yfx,F,27,1,6,63,P,0,RIGHT,0.339650879963301,1,30,95,2025-11-25 17:18:43
yfx,F,27,1,6,64,J,0,RIGHT,0.361837949021719,1,30,95,2025-11-25 17:18:43
yfx,F,27,1,6,65,X,0,RIGHT,0.481016638921574,1,30,95,2025-11-25 17:18:43
yfx,F,27,1,6,66,D,0,RIGHT,0.371423059026711,1,30,95,2025-11-25 17:18:43
yfx,F,27,1,6,67,S,0,RIGHT,0.422901774058118,1,30,95,2025-11-25 17:18:43
yfx,F,27,1,6,68,Q,0,RIGHT,0.584717168938369,1,30,95,2025-11-25 17:18:43
yfx,F,27,1,6,69,V,0,RIGHT,0.5659691990586,1,30,95,2025-11-25 17:18:43
yfx,F,27,1,6,70,K,0,RIGHT,0.385465009021573,1,30,95,2025-11-25 17:18:43
yfx,F,27,1,6,71,K,1,LEFT,0.405345947016031,1,30,95,2025-11-25 17:18:43
yfx,F,27,1,6,72,V,0,RIGHT,0.469536117976531,1,30,95,2025-11-25 17:18:43
yfx,F,27,1,6,73,V,1,LEFT,0.418366650003009,1,30,95,2025-11-25 17:18:43
yfx,F,27,1,6,74,P,0,RIGHT,0.486129772034474,1,30,95,2025-11-25 17:18:43
yfx,F,27,1,6,75,Z,0,RIGHT,0.3834555830108,1,30,95,2025-11-25 17:18:43
yfx,F,27,1,6,76,N,0,RIGHT,0.545364351943135,1,30,95,2025-11-25 17:18:43
yfx,F,27,1,6,77,J,0,RIGHT,0.520252768066712,1,30,95,2025-11-25 17:18:43
yfx,F,27,1,6,78,Q,0,RIGHT,0.350422929041088,1,30,95,2025-11-25 17:18:43
yfx,F,27,1,6,79,J,0,RIGHT,0.303279343992472,1,30,95,2025-11-25 17:18:43
yfx,F,27,1,6,80,J,1,RIGHT,0.380653555970639,0,30,95,2025-11-25 17:18:43
yfx,F,27,1,6,81,T,1,RIGHT,0.432592149008997,0,30,95,2025-11-25 17:18:43
yfx,F,27,1,6,82,N,0,RIGHT,0.393745317007415,1,30,95,2025-11-25 17:18:43
yfx,F,27,1,6,83,S,0,RIGHT,0.358335261931643,1,30,95,2025-11-25 17:18:43
yfx,F,27,1,6,84,Z,0,RIGHT,0.444729635026306,1,30,95,2025-11-25 17:18:43
yfx,F,27,1,6,85,J,0,RIGHT,0.385632726014592,1,30,95,2025-11-25 17:18:43
yfx,F,27,1,6,86,V,0,RIGHT,0.540785733028315,1,30,95,2025-11-25 17:18:43
yfx,F,27,1,6,87,S,0,RIGHT,0.397348425001837,1,30,95,2025-11-25 17:18:43
yfx,F,27,1,6,88,Z,0,RIGHT,0.370858842041343,1,30,95,2025-11-25 17:18:43
yfx,F,27,1,6,89,B,0,RIGHT,0.371947915991768,1,30,95,2025-11-25 17:18:43
yfx,F,27,1,6,90,B,1,LEFT,0.655673147994094,1,30,95,2025-11-25 17:18:43
yfx,F,27,1,6,91,R,0,RIGHT,0.481572670047171,1,30,95,2025-11-25 17:18:43
yfx,F,27,1,6,92,H,0,RIGHT,0.488971074926667,1,30,95,2025-11-25 17:18:43
yfx,F,27,1,6,93,H,1,LEFT,0.471985736046918,1,30,95,2025-11-25 17:18:43
yfx,F,27,1,6,94,G,1,RIGHT,0.371860665036365,0,30,95,2025-11-25 17:18:43
yfx,F,27,1,6,95,P,0,RIGHT,0.407068821950816,1,30,95,2025-11-25 17:18:43
yfx,F,27,1,6,96,Q,0,RIGHT,0.472058319021016,1,30,95,2025-11-25 17:18:43
yfx,F,27,1,6,97,R,0,RIGHT,0.475799417006783,1,30,95,2025-11-25 17:18:43
yfx,F,27,1,6,98,B,0,RIGHT,0.502513006911613,1,30,95,2025-11-25 17:18:43
yfx,F,27,1,6,99,K,0,RIGHT,0.376275440910831,1,30,95,2025-11-25 17:18:43
yfx,F,27,1,6,100,M,0,RIGHT,0.409308139933273,1,30,95,2025-11-25 17:18:43
yfx,F,27,1,6,101,G,0,RIGHT,0.43441108497791,1,30,95,2025-11-25 17:18:43
yfx,F,27,1,6,102,S,0,RIGHT,0.344673329032958,1,30,95,2025-11-25 17:18:43
yfx,F,27,1,6,103,W,0,RIGHT,0.317565297009423,1,30,95,2025-11-25 17:18:43
yfx,F,27,1,6,104,H,0,RIGHT,0.427232341957279,1,30,95,2025-11-25 17:18:43
yfx,F,27,1,6,105,S,0,RIGHT,0.297674008063041,1,30,95,2025-11-25 17:18:43
yfx,F,27,1,6,106,D,0,RIGHT,0.279748779023066,1,30,95,2025-11-25 17:18:43
yfx,F,27,1,6,107,V,0,RIGHT,0.368162051076069,1,30,95,2025-11-25 17:18:43
yfx,F,27,1,6,108,D,0,RIGHT,0.266103683970869,1,30,95,2025-11-25 17:18:43
yfx,F,27,1,6,109,Q,0,RIGHT,0.39849241997581,1,30,95,2025-11-25 17:18:43
yfx,F,27,1,6,110,Q,1,RIGHT,0.362643845961429,0,30,95,2025-11-25 17:18:43
yfx,F,27,1,6,111,V,0,RIGHT,0.398610299918801,1,30,95,2025-11-25 17:18:43
yfx,F,27,1,6,112,M,0,RIGHT,0.379513000953011,1,30,95,2025-11-25 17:18:43
yfx,F,27,1,6,113,M,1,LEFT,0.484079538029619,1,30,95,2025-11-25 17:18:43
yfx,F,27,1,6,114,W,0,RIGHT,0.445985826081596,1,30,95,2025-11-25 17:18:43
yfx,F,27,1,6,115,J,0,RIGHT,0.424040248035453,1,30,95,2025-11-25 17:18:43
yfx,F,27,1,6,116,J,1,LEFT,0.665946854045615,1,30,95,2025-11-25 17:18:43
yfx,F,27,1,6,117,Z,0,RIGHT,0.380223702988587,1,30,95,2025-11-25 17:18:43
yfx,F,27,1,6,118,B,0,RIGHT,0.431005235994235,1,30,95,2025-11-25 17:18:43
yfx,F,27,1,6,119,Z,0,RIGHT,0.284190636943094,1,30,95,2025-11-25 17:18:43
yfx,F,27,1,6,120,F,0,RIGHT,0.615336571005173,1,30,95,2025-11-25 17:18:43
yfx,F,27,2,7,1,J,0,,NaN,0,30,98,2025-11-25 17:26:42
yfx,F,27,2,7,2,S,0,,NaN,0,30,98,2025-11-25 17:26:42
yfx,F,27,2,7,3,V,0,RIGHT,0.468889088951983,1,30,98,2025-11-25 17:26:42
yfx,F,27,2,7,4,S,1,RIGHT,0.845670107984915,0,30,98,2025-11-25 17:26:42
yfx,F,27,2,7,5,R,0,RIGHT,0.829015298048034,1,30,98,2025-11-25 17:26:42
yfx,F,27,2,7,6,W,0,RIGHT,0.715941773029044,1,30,98,2025-11-25 17:26:42
yfx,F,27,2,7,7,C,0,RIGHT,0.623352030990645,1,30,98,2025-11-25 17:26:42
yfx,F,27,2,7,8,H,0,RIGHT,0.440131595009007,1,30,98,2025-11-25 17:26:42
yfx,F,27,2,7,9,C,1,LEFT,0.60784453805536,1,30,98,2025-11-25 17:26:42
yfx,F,27,2,7,10,F,0,RIGHT,0.428163480944932,1,30,98,2025-11-25 17:26:42
yfx,F,27,2,7,11,C,1,RIGHT,0.738054440938868,0,30,98,2025-11-25 17:26:42
yfx,F,27,2,7,12,F,1,RIGHT,0.654549420927651,0,30,98,2025-11-25 17:26:42
yfx,F,27,2,7,13,W,0,RIGHT,0.564715361921117,1,30,98,2025-11-25 17:26:42
yfx,F,27,2,7,14,P,0,RIGHT,0.633493726025335,1,30,98,2025-11-25 17:26:42
yfx,F,27,2,7,15,C,0,RIGHT,0.817912166006863,1,30,98,2025-11-25 17:26:42
yfx,F,27,2,7,16,X,0,RIGHT,0.762020955909975,1,30,98,2025-11-25 17:26:42
yfx,F,27,2,7,17,C,1,RIGHT,0.840925827040337,0,30,98,2025-11-25 17:26:42
yfx,F,27,2,7,18,H,0,RIGHT,0.445395887014456,1,30,98,2025-11-25 17:26:42
yfx,F,27,2,7,19,C,1,RIGHT,0.714881684980355,0,30,98,2025-11-25 17:26:42
yfx,F,27,2,7,20,Z,0,RIGHT,1.11743580701295,1,30,98,2025-11-25 17:26:42
yfx,F,27,2,7,21,S,0,RIGHT,0.863927319995128,1,30,98,2025-11-25 17:26:42
yfx,F,27,2,7,22,T,0,RIGHT,0.45118834299501,1,30,98,2025-11-25 17:26:42
yfx,F,27,2,7,23,L,0,RIGHT,0.390990508953109,1,30,98,2025-11-25 17:26:42
yfx,F,27,2,7,24,L,0,RIGHT,0.683254258008674,1,30,98,2025-11-25 17:26:42
yfx,F,27,2,7,25,P,0,RIGHT,0.520674661966041,1,30,98,2025-11-25 17:26:42
yfx,F,27,2,7,26,H,0,RIGHT,0.571593155968003,1,30,98,2025-11-25 17:26:42
yfx,F,27,2,7,27,T,0,RIGHT,0.788240726105869,1,30,98,2025-11-25 17:26:42
yfx,F,27,2,7,28,N,0,RIGHT,1.06525521609001,1,30,98,2025-11-25 17:26:42
yfx,F,27,2,7,29,Q,0,RIGHT,0.663218096015044,1,30,98,2025-11-25 17:26:42
yfx,F,27,2,7,30,H,0,RIGHT,0.520761632011272,1,30,98,2025-11-25 17:26:42
yfx,F,27,2,7,31,D,0,RIGHT,0.666432537953369,1,30,98,2025-11-25 17:26:42
yfx,F,27,2,7,32,H,1,LEFT,1.15749405906536,1,30,98,2025-11-25 17:26:42
yfx,F,27,2,7,33,D,1,LEFT,1.08154804795049,1,30,98,2025-11-25 17:26:42
yfx,F,27,2,7,34,T,0,RIGHT,0.720441370969638,1,30,98,2025-11-25 17:26:42
yfx,F,27,2,7,35,K,1,RIGHT,0.521227734978311,0,30,98,2025-11-25 17:26:42
yfx,F,27,2,7,36,Q,0,RIGHT,0.521108447923325,1,30,98,2025-11-25 17:26:42
yfx,F,27,2,7,37,D,0,RIGHT,0.66149527602829,1,30,98,2025-11-25 17:26:42
yfx,F,27,2,7,38,B,0,RIGHT,0.732047036988661,1,30,98,2025-11-25 17:26:42
yfx,F,27,2,7,39,P,0,RIGHT,0.52111590700224,1,30,98,2025-11-25 17:26:42
yfx,F,27,2,7,40,J,0,RIGHT,0.871119625051506,1,30,98,2025-11-25 17:26:42
yfx,F,27,2,7,41,X,0,RIGHT,0.999889918952249,1,30,98,2025-11-25 17:26:42
yfx,F,27,2,7,42,Z,0,RIGHT,1.21337410307024,1,30,98,2025-11-25 17:26:42
yfx,F,27,2,7,43,X,1,LEFT,1.035784102045,1,30,98,2025-11-25 17:26:42
yfx,F,27,2,7,44,T,0,RIGHT,0.587565371068195,1,30,98,2025-11-25 17:26:42
yfx,F,27,2,7,45,X,1,RIGHT,0.820943282917142,0,30,98,2025-11-25 17:26:42
yfx,F,27,2,7,46,T,1,LEFT,1.08969947695732,1,30,98,2025-11-25 17:26:42
yfx,F,27,2,7,47,X,1,RIGHT,0.913232357939705,0,30,98,2025-11-25 17:26:42
yfx,F,27,2,7,48,X,0,LEFT,0.819042367045768,0,30,98,2025-11-25 17:26:42
yfx,F,27,2,7,49,N,0,RIGHT,0.708949234918691,1,30,98,2025-11-25 17:26:42
yfx,F,27,2,7,50,R,0,RIGHT,0.558434929000214,1,30,98,2025-11-25 17:26:42
yfx,F,27,2,7,51,P,0,RIGHT,0.500745236990042,1,30,98,2025-11-25 17:26:42
yfx,F,27,2,7,52,B,0,RIGHT,0.541126685915515,1,30,98,2025-11-25 17:26:42
yfx,F,27,2,7,53,L,0,RIGHT,0.384637707960792,1,30,98,2025-11-25 17:26:42
yfx,F,27,2,7,54,R,0,RIGHT,0.422603419050574,1,30,98,2025-11-25 17:26:42
yfx,F,27,2,7,55,L,1,LEFT,0.474922813009471,1,30,98,2025-11-25 17:26:42
yfx,F,27,2,7,56,K,0,RIGHT,0.711666585993953,1,30,98,2025-11-25 17:26:42
yfx,F,27,2,7,57,X,0,RIGHT,0.581555584911257,1,30,98,2025-11-25 17:26:42
yfx,F,27,2,7,58,V,0,RIGHT,0.666774544049986,1,30,98,2025-11-25 17:26:42
yfx,F,27,2,7,59,V,0,LEFT,0.857828889973462,0,30,98,2025-11-25 17:26:42
yfx,F,27,2,7,60,V,1,LEFT,0.723188185016625,1,30,98,2025-11-25 17:26:42
yfx,F,27,2,7,61,P,0,RIGHT,0.629717039060779,1,30,98,2025-11-25 17:26:42
yfx,F,27,2,7,62,V,1,RIGHT,0.445015616016462,0,30,98,2025-11-25 17:26:42
yfx,F,27,2,7,63,X,0,RIGHT,0.714128784020431,1,30,98,2025-11-25 17:26:42
yfx,F,27,2,7,64,Q,0,RIGHT,0.438582409056835,1,30,98,2025-11-25 17:26:42
yfx,F,27,2,7,65,X,1,LEFT,0.648260253015906,1,30,98,2025-11-25 17:26:42
yfx,F,27,2,7,66,R,0,RIGHT,0.464014427969232,1,30,98,2025-11-25 17:26:42
yfx,F,27,2,7,67,X,1,LEFT,0.475157632026821,1,30,98,2025-11-25 17:26:42
yfx,F,27,2,7,68,K,0,RIGHT,0.545098903938197,1,30,98,2025-11-25 17:26:42
yfx,F,27,2,7,69,R,0,RIGHT,0.563852131017484,1,30,98,2025-11-25 17:26:42
yfx,F,27,2,7,70,X,0,RIGHT,0.546552512911148,1,30,98,2025-11-25 17:26:42
yfx,F,27,2,7,71,V,0,RIGHT,0.574423231068067,1,30,98,2025-11-25 17:26:42
yfx,F,27,2,7,72,M,0,RIGHT,0.450656262109987,1,30,98,2025-11-25 17:26:42
yfx,F,27,2,7,73,S,0,RIGHT,0.433237056015059,1,30,98,2025-11-25 17:26:42
yfx,F,27,2,7,74,K,0,RIGHT,0.725769029930234,1,30,98,2025-11-25 17:26:42
yfx,F,27,2,7,75,S,1,LEFT,1.42560594598763,1,30,98,2025-11-25 17:26:42
yfx,F,27,2,7,76,Z,0,RIGHT,0.826731228968129,1,30,98,2025-11-25 17:26:42
yfx,F,27,2,7,77,V,0,RIGHT,1.00870018696878,1,30,98,2025-11-25 17:26:42
yfx,F,27,2,7,78,K,0,RIGHT,0.553098085918464,1,30,98,2025-11-25 17:26:42
yfx,F,27,2,7,79,L,0,RIGHT,0.634050974040292,1,30,98,2025-11-25 17:26:42
yfx,F,27,2,7,80,G,0,RIGHT,0.392199666006491,1,30,98,2025-11-25 17:26:42
yfx,F,27,2,7,81,L,1,LEFT,1.3081410570303,1,30,98,2025-11-25 17:26:42
yfx,F,27,2,7,82,W,0,RIGHT,0.776119897025637,1,30,98,2025-11-25 17:26:42
yfx,F,27,2,7,83,X,0,RIGHT,0.784382925019599,1,30,98,2025-11-25 17:26:42
yfx,F,27,2,7,84,N,0,RIGHT,0.936635387944989,1,30,98,2025-11-25 17:26:42
yfx,F,27,2,7,85,P,0,RIGHT,0.324532528989948,1,30,98,2025-11-25 17:26:42
yfx,F,27,2,7,86,D,0,RIGHT,1.13169057900086,1,30,98,2025-11-25 17:26:42
yfx,F,27,2,7,87,X,0,RIGHT,1.02131799503695,1,30,98,2025-11-25 17:26:42
yfx,F,27,2,7,88,M,0,RIGHT,0.355813510948792,1,30,98,2025-11-25 17:26:42
yfx,F,27,2,7,89,F,0,RIGHT,0.324790203012526,1,30,98,2025-11-25 17:26:42
yfx,F,27,2,7,90,X,0,RIGHT,0.452337427996099,1,30,98,2025-11-25 17:26:42
yfx,F,27,2,7,91,F,1,LEFT,0.758775772992522,1,30,98,2025-11-25 17:26:42
yfx,F,27,2,7,92,V,0,RIGHT,0.593764304067008,1,30,98,2025-11-25 17:26:42
yfx,F,27,2,7,93,H,0,RIGHT,0.379447754006833,1,30,98,2025-11-25 17:26:42
yfx,F,27,2,7,94,Q,0,RIGHT,0.56065437302459,1,30,98,2025-11-25 17:26:42
yfx,F,27,2,7,95,R,0,RIGHT,0.75009022501763,1,30,98,2025-11-25 17:26:42
yfx,F,27,2,7,96,D,0,RIGHT,0.466208247002214,1,30,98,2025-11-25 17:26:42
yfx,F,27,2,7,97,K,0,RIGHT,0.371460537076928,1,30,98,2025-11-25 17:26:42
yfx,F,27,2,7,98,J,0,RIGHT,0.358349105925299,1,30,98,2025-11-25 17:26:42
yfx,F,27,2,7,99,S,0,RIGHT,0.812574131996371,1,30,98,2025-11-25 17:26:42
yfx,F,27,2,7,100,H,0,RIGHT,0.726787870051339,1,30,98,2025-11-25 17:26:42
yfx,F,27,2,7,101,X,0,RIGHT,0.439330036984757,1,30,98,2025-11-25 17:26:42
yfx,F,27,2,7,102,V,0,RIGHT,0.398238618974574,1,30,98,2025-11-25 17:26:42
yfx,F,27,2,7,103,K,0,RIGHT,0.52749627805315,1,30,98,2025-11-25 17:26:42
yfx,F,27,2,7,104,M,0,RIGHT,0.481564557994716,1,30,98,2025-11-25 17:26:42
yfx,F,27,2,7,105,S,0,RIGHT,0.352033113013022,1,30,98,2025-11-25 17:26:42
yfx,F,27,2,7,106,M,1,LEFT,0.414353092084639,1,30,98,2025-11-25 17:26:42
yfx,F,27,2,7,107,S,1,LEFT,1.26081876200624,1,30,98,2025-11-25 17:26:42
yfx,F,27,2,7,108,N,0,RIGHT,0.830675669014454,1,30,98,2025-11-25 17:26:42
yfx,F,27,2,7,109,J,0,RIGHT,0.633962233900093,1,30,98,2025-11-25 17:26:42
yfx,F,27,2,7,110,L,0,RIGHT,0.665490047074854,1,30,98,2025-11-25 17:26:42
yfx,F,27,2,7,111,S,0,RIGHT,0.577801979961805,1,30,98,2025-11-25 17:26:42
yfx,F,27,2,7,112,W,0,RIGHT,0.357477671001107,1,30,98,2025-11-25 17:26:42
yfx,F,27,2,7,113,R,0,RIGHT,0.441269958973862,1,30,98,2025-11-25 17:26:42
yfx,F,27,2,7,114,B,0,RIGHT,0.438633202924393,1,30,98,2025-11-25 17:26:42
yfx,F,27,2,7,115,R,1,RIGHT,0.345303414971568,0,30,98,2025-11-25 17:26:42
yfx,F,27,2,7,116,M,0,RIGHT,0.640740041970275,1,30,98,2025-11-25 17:26:42
yfx,F,27,2,7,117,L,0,RIGHT,0.722813852014951,1,30,98,2025-11-25 17:26:42
yfx,F,27,2,7,118,D,0,RIGHT,0.424100333009847,1,30,98,2025-11-25 17:26:42
yfx,F,27,2,7,119,V,0,RIGHT,0.662197242956609,1,30,98,2025-11-25 17:26:42
yfx,F,27,2,7,120,K,0,RIGHT,0.450309018022381,1,30,98,2025-11-25 17:26:42
yfx,F,27,2,8,1,W,0,,NaN,0,30,99,2025-11-25 17:33:48
yfx,F,27,2,8,2,Z,0,,NaN,0,30,99,2025-11-25 17:33:48
yfx,F,27,2,8,3,W,1,LEFT,0.989231248968281,1,30,99,2025-11-25 17:33:48
yfx,F,27,2,8,4,X,0,RIGHT,1.00374210905284,1,30,99,2025-11-25 17:33:48
yfx,F,27,2,8,5,P,0,RIGHT,0.44588447001297,1,30,99,2025-11-25 17:33:48
yfx,F,27,2,8,6,M,0,RIGHT,0.407999009010382,1,30,99,2025-11-25 17:33:48
yfx,F,27,2,8,7,J,0,RIGHT,0.415690013905987,1,30,99,2025-11-25 17:33:48
yfx,F,27,2,8,8,L,0,RIGHT,0.429528912995011,1,30,99,2025-11-25 17:33:48
yfx,F,27,2,8,9,N,0,RIGHT,0.372474418953061,1,30,99,2025-11-25 17:33:48
yfx,F,27,2,8,10,L,1,LEFT,0.648939665057696,1,30,99,2025-11-25 17:33:48
yfx,F,27,2,8,11,W,0,RIGHT,0.970446431078017,1,30,99,2025-11-25 17:33:48
yfx,F,27,2,8,12,C,1,RIGHT,0.421455996925943,0,30,99,2025-11-25 17:33:48
yfx,F,27,2,8,13,L,0,RIGHT,0.757279108045623,1,30,99,2025-11-25 17:33:48
yfx,F,27,2,8,14,V,0,RIGHT,0.383570404956117,1,30,99,2025-11-25 17:33:48
yfx,F,27,2,8,15,L,1,LEFT,0.521035755984485,1,30,99,2025-11-25 17:33:48
yfx,F,27,2,8,16,V,1,LEFT,1.46255825308617,1,30,99,2025-11-25 17:33:48
yfx,F,27,2,8,17,V,0,RIGHT,0.874085027026013,1,30,99,2025-11-25 17:33:48
yfx,F,27,2,8,18,W,0,RIGHT,1.11906544491649,1,30,99,2025-11-25 17:33:48
yfx,F,27,2,8,19,V,1,LEFT,0.774690043064766,1,30,99,2025-11-25 17:33:48
yfx,F,27,2,8,20,F,0,RIGHT,0.466910674003884,1,30,99,2025-11-25 17:33:48
yfx,F,27,2,8,21,V,1,LEFT,0.734940671012737,1,30,99,2025-11-25 17:33:48
yfx,F,27,2,8,22,X,0,RIGHT,0.911594194010831,1,30,99,2025-11-25 17:33:48
yfx,F,27,2,8,23,Q,0,RIGHT,0.480094565078616,1,30,99,2025-11-25 17:33:48
yfx,F,27,2,8,24,M,0,RIGHT,0.440157924080268,1,30,99,2025-11-25 17:33:48
yfx,F,27,2,8,25,Q,1,LEFT,0.977497763931751,1,30,99,2025-11-25 17:33:48
yfx,F,27,2,8,26,V,0,RIGHT,0.559721595025621,1,30,99,2025-11-25 17:33:48
yfx,F,27,2,8,27,N,0,RIGHT,1.02390261704568,1,30,99,2025-11-25 17:33:48
yfx,F,27,2,8,28,V,1,LEFT,0.724723443039693,1,30,99,2025-11-25 17:33:48
yfx,F,27,2,8,29,L,0,RIGHT,0.499763002037071,1,30,99,2025-11-25 17:33:48
yfx,F,27,2,8,30,M,0,RIGHT,0.377167753991671,1,30,99,2025-11-25 17:33:48
yfx,F,27,2,8,31,L,1,LEFT,0.626376381027512,1,30,99,2025-11-25 17:33:48
yfx,F,27,2,8,32,M,1,LEFT,0.666999175911769,1,30,99,2025-11-25 17:33:48
yfx,F,27,2,8,33,R,0,RIGHT,0.562067700899206,1,30,99,2025-11-25 17:33:48
yfx,F,27,2,8,34,S,0,RIGHT,1.04235592100304,1,30,99,2025-11-25 17:33:48
yfx,F,27,2,8,35,R,1,LEFT,0.57774719002191,1,30,99,2025-11-25 17:33:48
yfx,F,27,2,8,36,M,0,RIGHT,0.473729906021617,1,30,99,2025-11-25 17:33:48
yfx,F,27,2,8,37,P,0,RIGHT,0.845567426993512,1,30,99,2025-11-25 17:33:48
yfx,F,27,2,8,38,D,0,RIGHT,0.544870926998556,1,30,99,2025-11-25 17:33:48
yfx,F,27,2,8,39,N,0,RIGHT,0.440352572011761,1,30,99,2025-11-25 17:33:48
yfx,F,27,2,8,40,S,0,RIGHT,0.844289108994417,1,30,99,2025-11-25 17:33:48
yfx,F,27,2,8,41,L,0,RIGHT,0.370761130005121,1,30,99,2025-11-25 17:33:48
yfx,F,27,2,8,42,V,0,RIGHT,0.338349562953226,1,30,99,2025-11-25 17:33:48
yfx,F,27,2,8,43,L,1,LEFT,0.651180371991359,1,30,99,2025-11-25 17:33:48
yfx,F,27,2,8,44,V,1,LEFT,0.627666931948625,1,30,99,2025-11-25 17:33:48
yfx,F,27,2,8,45,L,0,RIGHT,0.570601722924039,1,30,99,2025-11-25 17:33:48
yfx,F,27,2,8,46,L,0,RIGHT,1.13249033503234,1,30,99,2025-11-25 17:33:48
yfx,F,27,2,8,47,T,0,RIGHT,0.71151655795984,1,30,99,2025-11-25 17:33:48
yfx,F,27,2,8,48,L,1,RIGHT,0.673425720073283,0,30,99,2025-11-25 17:33:48
yfx,F,27,2,8,49,T,1,LEFT,0.857890907907858,1,30,99,2025-11-25 17:33:48
yfx,F,27,2,8,50,S,1,RIGHT,0.734517486998811,0,30,99,2025-11-25 17:33:48
yfx,F,27,2,8,51,L,1,RIGHT,0.412169725052081,0,30,99,2025-11-25 17:33:48
yfx,F,27,2,8,52,T,0,RIGHT,0.686490664025769,1,30,99,2025-11-25 17:33:48
yfx,F,27,2,8,53,R,0,RIGHT,0.85265164100565,1,30,99,2025-11-25 17:33:48
yfx,F,27,2,8,54,D,0,RIGHT,0.616666133981198,1,30,99,2025-11-25 17:33:48
yfx,F,27,2,8,55,R,1,LEFT,0.940275936969556,1,30,99,2025-11-25 17:33:48
yfx,F,27,2,8,56,Q,0,RIGHT,0.856956868898124,1,30,99,2025-11-25 17:33:48
yfx,F,27,2,8,57,M,0,RIGHT,0.52051840396598,1,30,99,2025-11-25 17:33:48
yfx,F,27,2,8,58,B,0,RIGHT,0.383137415046804,1,30,99,2025-11-25 17:33:48
yfx,F,27,2,8,59,G,0,RIGHT,0.331252350006253,1,30,99,2025-11-25 17:33:48
yfx,F,27,2,8,60,V,0,RIGHT,0.528915975010023,1,30,99,2025-11-25 17:33:48
yfx,F,27,2,8,61,B,0,RIGHT,0.395244322018698,1,30,99,2025-11-25 17:33:48
yfx,F,27,2,8,62,W,0,RIGHT,0.392166243982501,1,30,99,2025-11-25 17:33:48
yfx,F,27,2,8,63,D,0,RIGHT,0.474344523972832,1,30,99,2025-11-25 17:33:48
yfx,F,27,2,8,64,Q,0,RIGHT,0.380281759076752,1,30,99,2025-11-25 17:33:48
yfx,F,27,2,8,65,N,0,RIGHT,0.555759723065421,1,30,99,2025-11-25 17:33:48
yfx,F,27,2,8,66,G,0,RIGHT,0.621960588963702,1,30,99,2025-11-25 17:33:48
yfx,F,27,2,8,67,P,0,RIGHT,0.435635876026936,1,30,99,2025-11-25 17:33:48
yfx,F,27,2,8,68,D,0,RIGHT,0.385647670016624,1,30,99,2025-11-25 17:33:48
yfx,F,27,2,8,69,R,0,RIGHT,0.428236673935317,1,30,99,2025-11-25 17:33:48
yfx,F,27,2,8,70,Q,0,RIGHT,0.520158917061053,1,30,99,2025-11-25 17:33:48
yfx,F,27,2,8,71,C,0,RIGHT,0.330382003099658,1,30,99,2025-11-25 17:33:48
yfx,F,27,2,8,72,C,0,RIGHT,0.349950485979207,1,30,99,2025-11-25 17:33:48
yfx,F,27,2,8,73,F,0,RIGHT,0.405522368964739,1,30,99,2025-11-25 17:33:48
yfx,F,27,2,8,74,B,0,RIGHT,0.566905078943819,1,30,99,2025-11-25 17:33:48
yfx,F,27,2,8,75,M,0,RIGHT,0.5278690130217,1,30,99,2025-11-25 17:33:48
yfx,F,27,2,8,76,V,0,RIGHT,0.363460934953764,1,30,99,2025-11-25 17:33:48
yfx,F,27,2,8,77,M,1,LEFT,0.830998038989492,1,30,99,2025-11-25 17:33:48
yfx,F,27,2,8,78,M,0,RIGHT,1.39072847692296,1,30,99,2025-11-25 17:33:48
yfx,F,27,2,8,79,W,0,RIGHT,1.68478697701357,1,30,99,2025-11-25 17:33:48
yfx,F,27,2,8,80,C,0,RIGHT,1.63277503906284,1,30,99,2025-11-25 17:33:48
yfx,F,27,2,8,81,X,0,RIGHT,0.666789566050284,1,30,99,2025-11-25 17:33:48
yfx,F,27,2,8,82,F,0,RIGHT,0.371128861093894,1,30,99,2025-11-25 17:33:48
yfx,F,27,2,8,83,M,0,RIGHT,0.707345918985084,1,30,99,2025-11-25 17:33:48
yfx,F,27,2,8,84,F,1,LEFT,0.707727416069247,1,30,99,2025-11-25 17:33:48
yfx,F,27,2,8,85,P,0,RIGHT,1.14865263493266,1,30,99,2025-11-25 17:33:48
yfx,F,27,2,8,86,B,0,RIGHT,0.840213662944734,1,30,99,2025-11-25 17:33:48
yfx,F,27,2,8,87,T,0,RIGHT,0.801369032007642,1,30,99,2025-11-25 17:33:48
yfx,F,27,2,8,88,W,0,RIGHT,0.662310451967642,1,30,99,2025-11-25 17:33:48
yfx,F,27,2,8,89,X,0,RIGHT,0.47258907801006,1,30,99,2025-11-25 17:33:48
yfx,F,27,2,8,90,Z,0,RIGHT,0.861565041006543,1,30,99,2025-11-25 17:33:48
yfx,F,27,2,8,91,M,0,RIGHT,0.545417496003211,1,30,99,2025-11-25 17:33:48
yfx,F,27,2,8,92,H,0,RIGHT,0.386952711036429,1,30,99,2025-11-25 17:33:48
yfx,F,27,2,8,93,C,0,RIGHT,0.387203274993226,1,30,99,2025-11-25 17:33:48
yfx,F,27,2,8,94,N,0,RIGHT,0.4286636300385,1,30,99,2025-11-25 17:33:48
yfx,F,27,2,8,95,Q,0,RIGHT,0.399586427025497,1,30,99,2025-11-25 17:33:48
yfx,F,27,2,8,96,T,0,RIGHT,0.657045433064923,1,30,99,2025-11-25 17:33:48
yfx,F,27,2,8,97,C,0,RIGHT,0.347058412968181,1,30,99,2025-11-25 17:33:48
yfx,F,27,2,8,98,Q,0,RIGHT,0.601893351064064,1,30,99,2025-11-25 17:33:48
yfx,F,27,2,8,99,N,0,RIGHT,0.390920324018225,1,30,99,2025-11-25 17:33:48
yfx,F,27,2,8,100,F,0,RIGHT,0.345725217019208,1,30,99,2025-11-25 17:33:48
yfx,F,27,2,8,101,X,0,RIGHT,0.376084559946321,1,30,99,2025-11-25 17:33:48
yfx,F,27,2,8,102,Q,0,RIGHT,0.34055865299888,1,30,99,2025-11-25 17:33:48
yfx,F,27,2,8,103,X,1,LEFT,0.645171287003905,1,30,99,2025-11-25 17:33:48
yfx,F,27,2,8,104,X,0,RIGHT,0.595382565981708,1,30,99,2025-11-25 17:33:48
yfx,F,27,2,8,105,R,0,RIGHT,0.633741216966882,1,30,99,2025-11-25 17:33:48
yfx,F,27,2,8,106,L,0,RIGHT,0.280564906075597,1,30,99,2025-11-25 17:33:48
yfx,F,27,2,8,107,R,1,LEFT,0.62873437104281,1,30,99,2025-11-25 17:33:48
yfx,F,27,2,8,108,P,0,RIGHT,0.503820684971288,1,30,99,2025-11-25 17:33:48
yfx,F,27,2,8,109,N,0,RIGHT,0.485457319999114,1,30,99,2025-11-25 17:33:48
yfx,F,27,2,8,110,R,0,RIGHT,0.600348493084311,1,30,99,2025-11-25 17:33:48
yfx,F,27,2,8,111,J,0,RIGHT,0.794567200937308,1,30,99,2025-11-25 17:33:48
yfx,F,27,2,8,112,G,0,RIGHT,0.52000301098451,1,30,99,2025-11-25 17:33:48
yfx,F,27,2,8,113,P,0,RIGHT,1.25417141697835,1,30,99,2025-11-25 17:33:48
yfx,F,27,2,8,114,W,0,RIGHT,0.905034773983061,1,30,99,2025-11-25 17:33:48
yfx,F,27,2,8,115,K,0,RIGHT,0.372915853979066,1,30,99,2025-11-25 17:33:48
yfx,F,27,2,8,116,D,0,RIGHT,0.63543479598593,1,30,99,2025-11-25 17:33:48
yfx,F,27,2,8,117,K,1,LEFT,0.660970194032416,1,30,99,2025-11-25 17:33:48
yfx,F,27,2,8,118,J,0,RIGHT,0.55726085905917,1,30,99,2025-11-25 17:33:48
yfx,F,27,2,8,119,K,0,LEFT,0.580271844984964,0,30,99,2025-11-25 17:33:48
yfx,F,27,2,8,120,V,0,RIGHT,0.700598401017487,1,30,99,2025-11-25 17:33:48
yfx,F,27,2,9,1,D,0,,NaN,0,30,100,2025-11-25 17:40:23
yfx,F,27,2,9,2,P,0,,NaN,0,30,100,2025-11-25 17:40:23
yfx,F,27,2,9,3,X,0,RIGHT,0.442302464973181,1,30,100,2025-11-25 17:40:23
yfx,F,27,2,9,4,P,1,LEFT,0.42208610009402,1,30,100,2025-11-25 17:40:23
yfx,F,27,2,9,5,G,0,RIGHT,0.409948953078128,1,30,100,2025-11-25 17:40:23
yfx,F,27,2,9,6,M,0,RIGHT,0.443961753044277,1,30,100,2025-11-25 17:40:23
yfx,F,27,2,9,7,L,0,RIGHT,0.433828402892686,1,30,100,2025-11-25 17:40:23
yfx,F,27,2,9,8,N,0,RIGHT,0.290923975058831,1,30,100,2025-11-25 17:40:23
yfx,F,27,2,9,9,L,1,LEFT,0.350705791963264,1,30,100,2025-11-25 17:40:23
yfx,F,27,2,9,10,C,0,RIGHT,0.654923727037385,1,30,100,2025-11-25 17:40:23
yfx,F,27,2,9,11,L,1,LEFT,0.584309943020344,1,30,100,2025-11-25 17:40:23
yfx,F,27,2,9,12,G,0,RIGHT,0.536283083027229,1,30,100,2025-11-25 17:40:23
yfx,F,27,2,9,13,B,0,RIGHT,0.53791255003307,1,30,100,2025-11-25 17:40:23
yfx,F,27,2,9,14,Z,0,RIGHT,0.492263450985774,1,30,100,2025-11-25 17:40:23
yfx,F,27,2,9,15,M,0,RIGHT,0.303454190958291,1,30,100,2025-11-25 17:40:23
yfx,F,27,2,9,16,X,0,RIGHT,0.520070406026207,1,30,100,2025-11-25 17:40:23
yfx,F,27,2,9,17,T,0,RIGHT,0.293286417960189,1,30,100,2025-11-25 17:40:23
yfx,F,27,2,9,18,B,0,RIGHT,0.315566611941904,1,30,100,2025-11-25 17:40:23
yfx,F,27,2,9,19,T,1,LEFT,0.678202718030661,1,30,100,2025-11-25 17:40:23
yfx,F,27,2,9,20,S,0,RIGHT,0.417990421061404,1,30,100,2025-11-25 17:40:23
yfx,F,27,2,9,21,R,0,RIGHT,0.433960073976777,1,30,100,2025-11-25 17:40:23
yfx,F,27,2,9,22,N,0,RIGHT,0.427575318957679,1,30,100,2025-11-25 17:40:23
yfx,F,27,2,9,23,G,0,RIGHT,0.405057157040574,1,30,100,2025-11-25 17:40:23
yfx,F,27,2,9,24,T,0,RIGHT,0.461142834974453,1,30,100,2025-11-25 17:40:23
yfx,F,27,2,9,25,H,0,RIGHT,0.354302678955719,1,30,100,2025-11-25 17:40:23
yfx,F,27,2,9,26,T,1,LEFT,0.578997718985192,1,30,100,2025-11-25 17:40:23
yfx,F,27,2,9,27,H,1,LEFT,0.783805151004344,1,30,100,2025-11-25 17:40:23
yfx,F,27,2,9,28,W,0,RIGHT,0.53080421499908,1,30,100,2025-11-25 17:40:23
yfx,F,27,2,9,29,W,1,RIGHT,0.410634487983771,0,30,100,2025-11-25 17:40:23
yfx,F,27,2,9,30,J,0,RIGHT,0.646093221032061,1,30,100,2025-11-25 17:40:23
yfx,F,27,2,9,31,W,1,LEFT,0.522356900968589,1,30,100,2025-11-25 17:40:23
yfx,F,27,2,9,32,X,0,RIGHT,0.888212074991316,1,30,100,2025-11-25 17:40:23
yfx,F,27,2,9,33,X,0,RIGHT,0.770663406932727,1,30,100,2025-11-25 17:40:23
yfx,F,27,2,9,34,P,0,RIGHT,0.370552737964317,1,30,100,2025-11-25 17:40:23
yfx,F,27,2,9,35,J,0,RIGHT,0.284474640036933,1,30,100,2025-11-25 17:40:23
yfx,F,27,2,9,36,W,0,RIGHT,0.768151324009523,1,30,100,2025-11-25 17:40:23
yfx,F,27,2,9,37,M,0,RIGHT,0.479115877998993,1,30,100,2025-11-25 17:40:23
yfx,F,27,2,9,38,X,0,RIGHT,0.521602149005048,1,30,100,2025-11-25 17:40:23
yfx,F,27,2,9,39,B,0,RIGHT,0.538205808028579,1,30,100,2025-11-25 17:40:23
yfx,F,27,2,9,40,N,0,RIGHT,0.490713728009723,1,30,100,2025-11-25 17:40:23
yfx,F,27,2,9,41,S,0,RIGHT,0.589352236944251,1,30,100,2025-11-25 17:40:23
yfx,F,27,2,9,42,F,0,RIGHT,0.442149784998037,1,30,100,2025-11-25 17:40:23
yfx,F,27,2,9,43,J,0,RIGHT,0.528890462010168,1,30,100,2025-11-25 17:40:23
yfx,F,27,2,9,44,G,0,RIGHT,0.437629480031319,1,30,100,2025-11-25 17:40:23
yfx,F,27,2,9,45,K,0,RIGHT,0.520886680926196,1,30,100,2025-11-25 17:40:23
yfx,F,27,2,9,46,L,0,RIGHT,0.586208658991382,1,30,100,2025-11-25 17:40:23
yfx,F,27,2,9,47,P,0,RIGHT,0.399908417020924,1,30,100,2025-11-25 17:40:23
yfx,F,27,2,9,48,B,0,RIGHT,0.400693810894154,1,30,100,2025-11-25 17:40:23
yfx,F,27,2,9,49,N,0,RIGHT,0.560995904961601,1,30,100,2025-11-25 17:40:23
yfx,F,27,2,9,50,J,0,RIGHT,0.613133402075619,1,30,100,2025-11-25 17:40:23
yfx,F,27,2,9,51,G,0,RIGHT,0.367719401023351,1,30,100,2025-11-25 17:40:23
yfx,F,27,2,9,52,G,0,LEFT,0.87193704303354,0,30,100,2025-11-25 17:40:23
yfx,F,27,2,9,53,G,1,LEFT,1.49054138897918,1,30,100,2025-11-25 17:40:23
yfx,F,27,2,9,54,Z,0,RIGHT,0.55626913998276,1,30,100,2025-11-25 17:40:23
yfx,F,27,2,9,55,G,1,LEFT,0.74355192692019,1,30,100,2025-11-25 17:40:23
yfx,F,27,2,9,56,T,0,RIGHT,0.556797171011567,1,30,100,2025-11-25 17:40:23
yfx,F,27,2,9,57,X,1,RIGHT,0.741559526999481,0,30,100,2025-11-25 17:40:23
yfx,F,27,2,9,58,F,0,RIGHT,0.521739499061368,1,30,100,2025-11-25 17:40:23
yfx,F,27,2,9,59,J,0,RIGHT,0.313936221995391,1,30,100,2025-11-25 17:40:23
yfx,F,27,2,9,60,G,0,RIGHT,0.921604300965555,1,30,100,2025-11-25 17:40:23
yfx,F,27,2,9,61,J,1,LEFT,0.74712894205004,1,30,100,2025-11-25 17:40:23
yfx,F,27,2,9,62,K,0,RIGHT,0.482782662962563,1,30,100,2025-11-25 17:40:23
yfx,F,27,2,9,63,S,0,RIGHT,0.397182645974681,1,30,100,2025-11-25 17:40:23
yfx,F,27,2,9,64,K,1,LEFT,0.593174387933686,1,30,100,2025-11-25 17:40:23
yfx,F,27,2,9,65,N,0,RIGHT,0.487415059003979,1,30,100,2025-11-25 17:40:23
yfx,F,27,2,9,66,Q,1,RIGHT,0.336557158036157,0,30,100,2025-11-25 17:40:23
yfx,F,27,2,9,67,H,0,RIGHT,0.38073722505942,1,30,100,2025-11-25 17:40:23
yfx,F,27,2,9,68,N,0,RIGHT,0.36413421202451,1,30,100,2025-11-25 17:40:23
yfx,F,27,2,9,69,H,1,LEFT,0.536750471103005,1,30,100,2025-11-25 17:40:23
yfx,F,27,2,9,70,T,0,RIGHT,0.890898484969512,1,30,100,2025-11-25 17:40:23
yfx,F,27,2,9,71,N,0,RIGHT,0.964912140974775,1,30,100,2025-11-25 17:40:23
yfx,F,27,2,9,72,S,0,RIGHT,0.392235446022823,1,30,100,2025-11-25 17:40:23
yfx,F,27,2,9,73,N,1,LEFT,0.694316425942816,1,30,100,2025-11-25 17:40:23
yfx,F,27,2,9,74,D,0,RIGHT,0.42707566707395,1,30,100,2025-11-25 17:40:23
yfx,F,27,2,9,75,R,1,RIGHT,0.459107764065266,0,30,100,2025-11-25 17:40:23
yfx,F,27,2,9,76,K,0,RIGHT,0.426803031004965,1,30,100,2025-11-25 17:40:23
yfx,F,27,2,9,77,C,0,RIGHT,0.422580164042301,1,30,100,2025-11-25 17:40:23
yfx,F,27,2,9,78,D,0,RIGHT,0.352767989970744,1,30,100,2025-11-25 17:40:23
yfx,F,27,2,9,79,C,1,LEFT,0.865099071059376,1,30,100,2025-11-25 17:40:23
yfx,F,27,2,9,80,R,0,RIGHT,0.366044052992947,1,30,100,2025-11-25 17:40:23
yfx,F,27,2,9,81,M,0,RIGHT,0.230318016023375,1,30,100,2025-11-25 17:40:23
yfx,F,27,2,9,82,S,0,RIGHT,0.749019852024503,1,30,100,2025-11-25 17:40:23
yfx,F,27,2,9,83,G,0,RIGHT,0.3686981969513,1,30,100,2025-11-25 17:40:23
yfx,F,27,2,9,84,B,0,RIGHT,0.360174459055997,1,30,100,2025-11-25 17:40:23
yfx,F,27,2,9,85,P,0,RIGHT,0.392228733049706,1,30,100,2025-11-25 17:40:23
yfx,F,27,2,9,86,J,0,RIGHT,0.47632507502567,1,30,100,2025-11-25 17:40:23
yfx,F,27,2,9,87,X,0,RIGHT,0.482576827984303,1,30,100,2025-11-25 17:40:23
yfx,F,27,2,9,88,X,0,RIGHT,0.797400437993929,1,30,100,2025-11-25 17:40:23
yfx,F,27,2,9,89,K,0,RIGHT,0.376263604033738,1,30,100,2025-11-25 17:40:23
yfx,F,27,2,9,90,B,0,RIGHT,0.343779451097362,1,30,100,2025-11-25 17:40:23
yfx,F,27,2,9,91,K,1,LEFT,0.731759683927521,1,30,100,2025-11-25 17:40:23
yfx,F,27,2,9,92,B,1,LEFT,0.520805900916457,1,30,100,2025-11-25 17:40:23
yfx,F,27,2,9,93,R,1,RIGHT,0.642939804005437,0,30,100,2025-11-25 17:40:23
yfx,F,27,2,9,94,C,0,RIGHT,0.391004230943508,1,30,100,2025-11-25 17:40:23
yfx,F,27,2,9,95,L,0,RIGHT,0.351788626983762,1,30,100,2025-11-25 17:40:23
yfx,F,27,2,9,96,Q,0,RIGHT,0.466437838971615,1,30,100,2025-11-25 17:40:23
yfx,F,27,2,9,97,S,0,RIGHT,0.455730776069686,1,30,100,2025-11-25 17:40:23
yfx,F,27,2,9,98,Q,1,LEFT,0.4867960549891,1,30,100,2025-11-25 17:40:23
yfx,F,27,2,9,99,Q,0,RIGHT,1.04253215889912,1,30,100,2025-11-25 17:40:23
yfx,F,27,2,9,100,R,0,RIGHT,0.503142073983327,1,30,100,2025-11-25 17:40:23
yfx,F,27,2,9,101,K,0,RIGHT,0.430994804017246,1,30,100,2025-11-25 17:40:23
yfx,F,27,2,9,102,P,0,RIGHT,0.398729350999929,1,30,100,2025-11-25 17:40:23
yfx,F,27,2,9,103,D,0,RIGHT,0.322087239939719,1,30,100,2025-11-25 17:40:23
yfx,F,27,2,9,104,C,0,RIGHT,0.48803152795881,1,30,100,2025-11-25 17:40:23
yfx,F,27,2,9,105,D,1,RIGHT,0.234856902970932,0,30,100,2025-11-25 17:40:23
yfx,F,27,2,9,106,J,0,RIGHT,0.308794607990421,1,30,100,2025-11-25 17:40:23
yfx,F,27,2,9,107,P,0,RIGHT,0.442500839009881,1,30,100,2025-11-25 17:40:23
yfx,F,27,2,9,108,Z,0,RIGHT,0.60522647399921,1,30,100,2025-11-25 17:40:23
yfx,F,27,2,9,109,F,0,RIGHT,0.493126619956456,1,30,100,2025-11-25 17:40:23
yfx,F,27,2,9,110,Z,1,LEFT,0.697825734037906,1,30,100,2025-11-25 17:40:23
yfx,F,27,2,9,111,K,0,RIGHT,0.399044026038609,1,30,100,2025-11-25 17:40:23
yfx,F,27,2,9,112,X,0,RIGHT,0.388714691973291,1,30,100,2025-11-25 17:40:23
yfx,F,27,2,9,113,L,0,RIGHT,0.385061957989819,1,30,100,2025-11-25 17:40:23
yfx,F,27,2,9,114,H,0,RIGHT,0.428919991943985,1,30,100,2025-11-25 17:40:23
yfx,F,27,2,9,115,D,0,RIGHT,0.326096965000033,1,30,100,2025-11-25 17:40:23
yfx,F,27,2,9,116,L,0,RIGHT,0.691145687014796,1,30,100,2025-11-25 17:40:23
yfx,F,27,2,9,117,L,0,RIGHT,0.35129604395479,1,30,100,2025-11-25 17:40:23
yfx,F,27,2,9,118,D,0,RIGHT,0.582310606958345,1,30,100,2025-11-25 17:40:23
yfx,F,27,2,9,119,M,0,RIGHT,0.637582439929247,1,30,100,2025-11-25 17:40:23
yfx,F,27,2,9,120,C,0,RIGHT,0.450697271036915,1,30,100,2025-11-25 17:40:23
